onset	duration	interstimulus_interval	trial_type	trial_type_2	target_condition	distractor	response	response_time	correct	identifier	database
0.053	1	3	Congruent	n/a	FEAR	FEAR	FEAR	1.773	1	M9FS_6104	NIMH-ChEFS
4.109	1	2	Congruent	n/a	HAPPY	HAPPY	HAPPY	0.97	1	F13HA_5265	NIMH-ChEFS
7.186	1	2.5	Incongruent	pCI	HAPPY	FEAR	HAPPY	0.923	1	M4HA_4877	NIMH-ChEFS
10.77	1	4	Incongruent	pII	FEAR	HAPPY	FEAR	0.911	1	F7FS_4016	NIMH-ChEFS
15.84	1	3.5	Congruent	n/a	HAPPY	HAPPY	HAPPY	1.495	1	F30HS_8495	NIMH-ChEFS
20.394	1	4	Congruent	n/a	FEAR	FEAR	FEAR	1.605	1	M4FA_4941	NIMH-ChEFS
25.462	1	3	Incongruent	pCI	FEAR	HAPPY	FEAR	1.403	1	F32FA_8053	NIMH-ChEFS
29.502	1	3.5	Incongruent	pII	HAPPY	FEAR	HAPPY	1.436	1	M10HS_6767	NIMH-ChEFS
34.075	1	2.5	Congruent	n/a	HAPPY	HAPPY	HAPPY	1.559	1	F23HA_7156	NIMH-ChEFS
37.622	1	2	Congruent	n/a	FEAR	FEAR	FEAR	1.549	1	F13FS_5292	NIMH-ChEFS
40.667	1	4	Incongruent	pCI	HAPPY	FEAR	HAPPY	1.556	1	F4HS_3664	NIMH-ChEFS
45.733	1	3	Incongruent	pII	HAPPY	FEAR	HAPPY	1.922	1	M20HA_9192	NIMH-ChEFS
49.801	1	2	Congruent	n/a	FEAR	FEAR	FEAR	1.572	1	F18FA_6243	NIMH-ChEFS
52.845	1	2.5	Congruent	n/a	HAPPY	HAPPY	HAPPY	1.46	1	M18HS_8848	NIMH-ChEFS
56.4	1	3.5	Incongruent	pCI	FEAR	HAPPY	FEAR	1.575	1	M14FS_7958	NIMH-ChEFS
60.966	1	2	Incongruent	pII	HAPPY	FEAR	HAPPY	1.484	1	F39HA_9433	NIMH-ChEFS
64.037	1	3.5	Congruent	n/a	FEAR	FEAR	FEAR	1.652	1	M10_FA_6823	NIMH-ChEFS
68.584	1	4	Congruent	n/a	HAPPY	HAPPY	HAPPY	1.404	1	F12HS_5000	NIMH-ChEFS
73.628	1	3	Incongruent	pCI	FEAR	HAPPY	FEAR	1.503	1	M17FA_8799	NIMH-ChEFS
77.674	1	2.5	Incongruent	pII	FEAR	HAPPY	FEAR	1.864	1	F2FS_3470	NIMH-ChEFS
81.221	1	3.5	Congruent	n/a	HAPPY	HAPPY	HAPPY	1.535	1	M14HA_7913	NIMH-ChEFS
85.79	1	4	Congruent	n/a	HAPPY	HAPPY	HAPPY	1.488	1	F7HA_3985	NIMH-ChEFS
90.86	1	2.5	Incongruent	pCI	FEAR	HAPPY	FEAR	1.663	1	M2FS_4636	NIMH-ChEFS
94.426	1	2	Incongruent	pII	HAPPY	FEAR	HAPPY	1.809	1	F18HS_6186	NIMH-ChEFS
97.494	1	3	Congruent	n/a	FEAR	FEAR	FEAR	1.578	1	F39FA_9489	NIMH-ChEFS
101.537	1	3.5	Congruent	n/a	HAPPY	HAPPY	HAPPY	2.152	1	M2HS_4493	NIMH-ChEFS
106.106	1	2	Incongruent	pCI	HAPPY	FEAR	HAPPY	1.907	1	F1HA_3424	NIMH-ChEFS
109.175	1	4	Incongruent	pII	FEAR	HAPPY	FEAR	1.558	1	M6FA__5449	NIMH-ChEFS
114.242	1	3	Congruent	n/a	FEAR	FEAR	FEAR	1.734	1	M19FS_9117	NIMH-ChEFS
118.313	1	2.5	Congruent	n/a	HAPPY	HAPPY	HAPPY	1.822	1	F35HS_8418	NIMH-ChEFS
121.856	1	3.5	Incongruent	pCI	FEAR	HAPPY	HAPPY	1.738	0	F16FS_5978	NIMH-ChEFS
126.429	1	2	Incongruent	pII	FEAR	HAPPY	FEAR	1.411	1	M1FA_4336	NIMH-ChEFS
129.498	1	2.5	Congruent	n/a	HAPPY	HAPPY	HAPPY	1.567	1	M9HA_6057	NIMH-ChEFS
133.067	1	4	Congruent	n/a	FEAR	FEAR	FEAR	0.907	1	F4FA_3712	NIMH-ChEFS
138.136	1	3	Incongruent	pCI	HAPPY	FEAR	HAPPY	1.813	1	M15HS_8316	NIMH-ChEFS
142.205	1	3	Incongruent	pII	FEAR	HAPPY	FEAR	1.589	1	F21FS_6587	NIMH-ChEFS
146.249	1	2.5	Congruent	n/a	HAPPY	HAPPY	FEAR	1.643	0	F19HA_6311	NIMH-ChEFS
149.817	1	4	Congruent	n/a	FEAR	FEAR	FEAR	1.628	1	M10_4FS_6817	NIMH-ChEFS
154.858	1	3.5	Incongruent	pCI	HAPPY	FEAR	HAPPY	1.084	1	F2HS_3448	NIMH-ChEFS
159.427	1	2	Incongruent	pII	HAPPY	FEAR	HAPPY	1.792	1	F10HA_4379	NIMH-ChEFS
162.47	1	4	Congruent	n/a	FEAR	FEAR	FEAR	1.564	1	M14FA_7960	NIMH-ChEFS
167.537	1	3	Congruent	n/a	FEAR	FEAR	FEAR	1.681	1	F30FA_8552	NIMH-ChEFS
171.579	1	2	Incongruent	pCI	HAPPY	FEAR	HAPPY	1.725	1	M8HA_5828	NIMH-ChEFS
174.624	1	2.5	Incongruent	pII	FEAR	HAPPY	FEAR	1.647	1	F35FS_8451	NIMH-ChEFS
178.191	1	3.5	Congruent	n/a	HAPPY	HAPPY	HAPPY	1.837	1	M1HS_4301	NIMH-ChEFS
182.759	1	3.5	Congruent	n/a	FEAR	FEAR	FEAR	1.879	1	F37FA_9020	NIMH-ChEFS
187.33	1	3	Incongruent	pCI	FEAR	HAPPY	FEAR	1.948	1	M11FS_6953	NIMH-ChEFS
191.37	1	2	Incongruent	pII	HAPPY	FEAR	HAPPY	1.61	1	F34HA_8219	NIMH-ChEFS
194.437	1	4	Congruent	n/a	FEAR	FEAR	FEAR	1.142	1	F10FS_4426	NIMH-ChEFS
199.508	1	2.5	Congruent	n/a	HAPPY	HAPPY	HAPPY	1.599	1	M16HS_8633	NIMH-ChEFS
203.053	1	4	Incongruent	pCI	HAPPY	FEAR	HAPPY	1.891	1	M5HA_5140	NIMH-ChEFS
208.123	1	3	Incongruent	pII	FEAR	HAPPY	HAPPY	1.575	0	F12FA_5062	NIMH-ChEFS
212.189	1	2	Congruent	n/a	HAPPY	HAPPY	HAPPY	0.957	1	F16HS_5924	NIMH-ChEFS
215.255	1	3.5	Congruent	n/a	FEAR	FEAR	FEAR	1.321	1	M2FA_4644	NIMH-ChEFS
219.824	1	2.5	Incongruent	pCI	FEAR	HAPPY	HAPPY	1.635	0	M16FS_8676	NIMH-ChEFS
223.394	1	2.5	Incongruent	pII	HAPPY	FEAR	FEAR	0.075	0	F6HA_3882	NIMH-ChEFS
226.962	1	3.5	Congruent	n/a	FEAR	FEAR	FEAR	1.384	1	F19FS_6344	NIMH-ChEFS
231.508	1	2	Congruent	n/a	FEAR	FEAR	FEAR	1.781	1	M8FA_5885	NIMH-ChEFS
234.574	1	3	Incongruent	pCI	HAPPY	FEAR	HAPPY	1.745	1	F32HS_7996	NIMH-ChEFS
238.643	1	4	Incongruent	pII	HAPPY	FEAR	HAPPY	1.773	1	M19HA_9066	NIMH-ChEFS
243.691	1	3.5	Congruent	n/a	FEAR	FEAR	FEAR	1.58	1	M3FS_4775	NIMH-ChEFS
248.24	1	2	Congruent	n/a	HAPPY	HAPPY	HAPPY	1.364	1	F3HA_3545	NIMH-ChEFS
251.309	1	4	Incongruent	pCI	FEAR	HAPPY	FEAR	1.769	1	M9FA_6121	NIMH-ChEFS
256.355	1	3	Incongruent	pII	FEAR	HAPPY	FEAR	1.084	1	F14FA_5638	NIMH-ChEFS
260.425	1	2.5	Congruent	n/a	HAPPY	HAPPY	HAPPY	0.865	1	M6HS_5354	NIMH-ChEFS
263.995	1	4	Congruent	n/a	HAPPY	HAPPY	HAPPY	0.801	1	F21HS_6544	NIMH-ChEFS
269.041	1	2.5	Incongruent	pCI	FEAR	HAPPY	FEAR	1.439	1	M17FS_8783	NIMH-ChEFS
272.609	1	3.5	Incongruent	pII	HAPPY	FEAR	HAPPY	1.366	1	F37HA_8965	NIMH-ChEFS
277.182	1	2	Congruent	n/a	HAPPY	HAPPY	HAPPY	0.887	1	M12HA_7030	NIMH-ChEFS
280.252	1	3	Congruent	n/a	FEAR	FEAR	FEAR	0.784	1	F31FS_7861	NIMH-ChEFS
284.3	1	2.5	Incongruent	pCI	FEAR	HAPPY	FEAR	0.961	1	F3FA_3605	NIMH-ChEFS
287.849	1	3.5	Incongruent	pII	HAPPY	FEAR	HAPPY	0.863	1	M3HS_4695	NIMH-ChEFS
292.417	1	4	Congruent	n/a	FEAR	FEAR	FEAR	0.986	1	M11FA_6969	NIMH-ChEFS
297.486	1	3	Congruent	n/a	HAPPY	HAPPY	HAPPY	0.838	1	F14HS_5590	NIMH-ChEFS
301.555	1	2	Incongruent	pCI	FEAR	HAPPY	FEAR	1.224	1	M12FS_7070	NIMH-ChEFS
304.623	1	3	Incongruent	pII	FEAR	HAPPY	FEAR	0.891	1	F6FS_3906	NIMH-ChEFS
308.666	1	4	Congruent	n/a	HAPPY	HAPPY	HAPPY	0.74	1	M7HA_5500	NIMH-ChEFS
313.711	1	3.5	Congruent	n/a	FEAR	FEAR	FEAR	0.839	1	F23FA_7228	NIMH-ChEFS
318.279	1	2.5	Incongruent	pCI	HAPPY	FEAR	HAPPY	1.329	1	F31HA_8583	NIMH-ChEFS
321.826	1	2	Incongruent	pII	HAPPY	FEAR	HAPPY	1.042	1	M11HS_6885	NIMH-ChEFS
324.89	1	2.5	Congruent	n/a	FEAR	FEAR	FEAR	1.116	1	M3FA_4789	NIMH-ChEFS
328.458	1	2	Congruent	n/a	FEAR	FEAR	FEAR	0.889	1	F34FS_8257	NIMH-ChEFS
331.528	1	4	Incongruent	pCI	HAPPY	FEAR	HAPPY	1.002	1	M17HS_8732	NIMH-ChEFS
336.599	1	3	Incongruent	pII	FEAR	HAPPY	FEAR	0.967	1	F7FA_4040	NIMH-ChEFS
340.671	1	3.5	Congruent	n/a	HAPPY	HAPPY	HAPPY	0.899	1	F10HS_4372	NIMH-ChEFS
345.237	1	4	Congruent	n/a	FEAR	FEAR	FEAR	0.993	1	M1FS_4325	NIMH-ChEFS
350.307	1	2.5	Incongruent	pCI	FEAR	HAPPY	FEAR	1.296	1	M6_1FA_5445	NIMH-ChEFS
353.852	1	3	Incongruent	pII	HAPPY	FEAR	HAPPY	1.019	1	F35HA_8422	NIMH-ChEFS
357.9	1	2	Congruent	n/a	HAPPY	HAPPY	HAPPY	1.158	1	M16HA_8638	NIMH-ChEFS
360.967	1	3.5	Congruent	n/a	FEAR	FEAR	FEAR	1.27	1	F12FS_5036	NIMH-ChEFS
365.536	1	4	Incongruent	pCI	HAPPY	FEAR	HAPPY	1.336	1	F1HS_3423	NIMH-ChEFS
370.607	1	2	Incongruent	pII	FEAR	HAPPY	FEAR	1.466	1	M7FA_5539	NIMH-ChEFS
373.677	1	3	Congruent	n/a	FEAR	FEAR	FEAR	1.235	1	F34FA_8267	NIMH-ChEFS
377.745	1	2.5	Congruent	n/a	HAPPY	HAPPY	HAPPY	0.718	1	M8HS_5817	NIMH-ChEFS
381.314	1	3.5	Incongruent	pCI	FEAR	HAPPY	FEAR	0.906	1	F23FS_7205	NIMH-ChEFS
385.859	1	2	Incongruent	pII	HAPPY	FEAR	HAPPY	0.737	1	M1HA_4302	NIMH-ChEFS
388.93	1	2.5	Congruent	n/a	FEAR	FEAR	FEAR	0.784	1	M5FS_5188	NIMH-ChEFS
392.499	1	3.5	Congruent	n/a	HAPPY	HAPPY	HAPPY	0.658	1	F18HA_6193	NIMH-ChEFS
397.048	1	3	Incongruent	pCI	FEAR	HAPPY	FEAR	1.397	1	M20FA_9277	NIMH-ChEFS
401.117	1	4	Incongruent	pII	FEAR	HAPPY	FEAR	0.949	1	F10FA_4434	NIMH-ChEFS
406.187	1	3	Congruent	n/a	HAPPY	HAPPY	HAPPY	0.906	1	F7HS_3986	NIMH-ChEFS
410.257	1	4	Congruent	n/a	HAPPY	HAPPY	FEAR	0.828	0	M12HS_7022	NIMH-ChEFS
415.312	1	3.5	Incongruent	pCI	FEAR	HAPPY	FEAR	1.111	1	M7FS_5530	NIMH-ChEFS
419.854	1	2.5	Incongruent	pII	HAPPY	FEAR	HAPPY	0.915	1	F21HA_6550	NIMH-ChEFS
423.424	1	2	Congruent	n/a	HAPPY	HAPPY	HAPPY	0.612	1	M17HA_8742	NIMH-ChEFS
426.494	1	3.5	Congruent	n/a	FEAR	FEAR	FEAR	0.738	1	F39FS_9475	NIMH-ChEFS
431.039	1	3	Incongruent	pCI	HAPPY	FEAR	HAPPY	0.832	1	M11HA_6890	NIMH-ChEFS
435.109	1	2.5	Incongruent	pII	FEAR	HAPPY	FEAR	1.015	1	F19FA_6353	NIMH-ChEFS
438.677	1	4	Congruent	n/a	FEAR	FEAR	FEAR	0.726	1	M15FA_8374	NIMH-ChEFS
443.747	1	2	Congruent	n/a	HAPPY	HAPPY	HAPPY	0.893	1	F13HS_5255	NIMH-ChEFS
446.816	1	3	Incongruent	pCI	HAPPY	FEAR	HAPPY	1.008	1	M20HS_9191	NIMH-ChEFS
450.864	1	2	Incongruent	pII	FEAR	HAPPY	HAPPY	0.548	0	M6FS_5422	NIMH-ChEFS
453.913	1	2.5	Congruent	n/a	HAPPY	HAPPY	HAPPY	0.852	1	F16HA_5934	NIMH-ChEFS
457.483	1	4	Congruent	n/a	FEAR	FEAR	FEAR	1.003	1	M18FA_8913	NIMH-ChEFS
462.549	1	3.5	Incongruent	pCI	HAPPY	FEAR	HAPPY	0.693	1	F39HS_9426	NIMH-ChEFS
467.096	1	3	Incongruent	pII	FEAR	HAPPY	FEAR	0.93	1	F3FS_3596	NIMH-ChEFS
471.162	1	3.5	Congruent	n/a	FEAR	FEAR	FEAR	1.061	1	M8FS_5869	NIMH-ChEFS
475.731	1	4	Congruent	n/a	HAPPY	HAPPY	HAPPY	0.853	1	M4HS_4862	NIMH-ChEFS
480.8	1	2.5	Incongruent	pCI	HAPPY	FEAR	HAPPY	1.215	1	F2HA_3451	NIMH-ChEFS
484.37	1	2	Incongruent	pII	HAPPY	FEAR	HAPPY	1.041	1	M10HA_6772	NIMH-ChEFS
487.439	1	2.5	Congruent	n/a	FEAR	FEAR	FEAR	1.01	1	F18FS_6229	NIMH-ChEFS
490.982	1	2	Congruent	n/a	HAPPY	HAPPY	HAPPY	1.112	1	F31HS_8581	NIMH-ChEFS
494.027	1	3.5	Incongruent	pCI	FEAR	HAPPY	HAPPY	1.055	0	M12FA_7082	NIMH-ChEFS
498.597	1	3	Incongruent	pII	HAPPY	FEAR	HAPPY	1.456	1	F12HA_5004	NIMH-ChEFS
502.667	1	4	Congruent	n/a	FEAR	FEAR	FEAR	0.825	1	F6FA_3922	NIMH-ChEFS
507.737	1	2	Congruent	n/a	HAPPY	HAPPY	HAPPY	0.762	1	M5HS_5134	NIMH-ChEFS
510.807	1	3.5	Incongruent	pCI	HAPPY	FEAR	HAPPY	0.985	1	M14HS_7912	NIMH-ChEFS
515.379	1	4	Incongruent	pII	FEAR	HAPPY	FEAR	0.644	1	F32FS_8041	NIMH-ChEFS
520.448	1	3	Congruent	n/a	FEAR	FEAR	FEAR	1.143	1	M19FA_9129	NIMH-ChEFS
524.513	1	2.5	Congruent	n/a	HAPPY	HAPPY	HAPPY	0.966	1	F34HS_8209	NIMH-ChEFS
528.079	1	3.5	Incongruent	pCI	HAPPY	FEAR	HAPPY	1.273	1	M18HA_8854	NIMH-ChEFS
532.626	1	4	Incongruent	pII	FEAR	HAPPY	FEAR	0.859	1	F16FA_5992	NIMH-ChEFS
537.694	1	3	Congruent	n/a	FEAR	FEAR	FEAR	1.166	1	F37FS_9007	NIMH-ChEFS
541.766	1	2.5	Congruent	n/a	HAPPY	HAPPY	HAPPY	0.822	1	M3HA_4707	NIMH-ChEFS
545.336	1	2	Incongruent	pCI	FEAR	HAPPY	FEAR	0.818	1	M15FS_8364	NIMH-ChEFS
548.404	1	4	Incongruent	pII	FEAR	HAPPY	FEAR	1.279	1	F13FA_5314	NIMH-ChEFS
553.474	1	3	Congruent	n/a	HAPPY	HAPPY	HAPPY	0.714	1	F14HA_5595	NIMH-ChEFS
557.519	1	3.5	Congruent	n/a	FEAR	FEAR	FEAR	0.87	1	M5FA_5198	NIMH-ChEFS
562.066	1	2.5	Incongruent	pCI	FEAR	HAPPY	FEAR	0.701	1	F2FA_3491	NIMH-ChEFS
565.633	1	2	Incongruent	pII	HAPPY	FEAR	HAPPY	1.224	1	F23HS_7148	NIMH-ChEFS
568.698	1	2	Congruent	n/a	FEAR	FEAR	FEAR	1.046	1	M18FS_8888	NIMH-ChEFS
571.767	1	3.5	Congruent	n/a	HAPPY	HAPPY	HAPPY	0.726	1	F30HA_8500	NIMH-ChEFS
576.332	1	2.5	Incongruent	pCI	HAPPY	FEAR	HAPPY	0.928	1	M7HS_5497	NIMH-ChEFS
579.901	1	3	Incongruent	pII	FEAR	HAPPY	FEAR	0.808	1	F14FS_5632	NIMH-ChEFS
583.957	1	4	Congruent	n/a	HAPPY	HAPPY	HAPPY	0.976	1	M2HA_4506	NIMH-ChEFS
589.002	1	2	Congruent	n/a	FEAR	FEAR	FEAR	1.016	1	F21FA_6608	NIMH-ChEFS
592.046	1	3	Incongruent	pCI	HAPPY	FEAR	HAPPY	0.952	1	F6HS_3875	NIMH-ChEFS
596.091	1	3.5	Incongruent	pII	HAPPY	FEAR	HAPPY	0.773	1	M19HS_9059	NIMH-ChEFS
600.659	1	4	Congruent	n/a	FEAR	FEAR	HAPPY	0.798	0	F4FS_3704	NIMH-ChEFS
605.729	1	2.5	Congruent	n/a	HAPPY	HAPPY	HAPPY	1.112	1	F32HA_7998	NIMH-ChEFS
609.298	1	3	Incongruent	pCI	HAPPY	FEAR	HAPPY	1.202	1	M6HA_5360	NIMH-ChEFS
613.365	1	2.5	Incongruent	pII	FEAR	HAPPY	FEAR	0.883	1	M16FA_8681	NIMH-ChEFS
616.931	1	3.5	Congruent	n/a	HAPPY	HAPPY	HAPPY	1.069	1	F19HS_6297	NIMH-ChEFS
621.499	1	4	Congruent	n/a	FEAR	FEAR	FEAR	1.436	1	F35FA_8465	NIMH-ChEFS
626.567	1	2	Incongruent	pCI	FEAR	HAPPY	FEAR	0.937	1	M4FS_4935	NIMH-ChEFS
629.635	1	3.5	Incongruent	pII	HAPPY	FEAR	HAPPY	0.898	1	F37HS_8954	NIMH-ChEFS
634.205	1	2	Congruent	n/a	FEAR	FEAR	FEAR	1.099	1	F30FS_8546	NIMH-ChEFS
637.276	1	2.5	Congruent	n/a	HAPPY	HAPPY	HAPPY	0.863	1	M9HS_6054	NIMH-ChEFS
640.846	1	4	Incongruent	pCI	FEAR	HAPPY	FEAR	0.94	1	F31FA_7873	NIMH-ChEFS
645.915	1	3	Incongruent	pII	HAPPY	FEAR	HAPPY	1.229	1	F4HA_3668	NIMH-ChEFS
649.958	1	2	Congruent	n/a	HAPPY	HAPPY	HAPPY	0.739	1	M15HA_8321	NIMH-ChEFS
653.002	1	4	Incongruent	pCI	HAPPY	FEAR	HAPPY	0.918	1	F3HS_3540	NIMH-ChEFS
658.049	1	2.5	Incongruent	pII	FEAR	HAPPY	FEAR	0.933	1	M20FS_9236	NIMH-ChEFS
