onset	duration	interstimulus_interval	trial_type	trial_type_2	target_condition	distractor	response	response_time	correct	identifier	database
0.05	1	3.5	Congruent	n/a	FEAR	FEAR	FEAR	1.204	1	M9FS_6104	NIMH-ChEFS
4.603	1	4	Congruent	n/a	HAPPY	HAPPY	HAPPY	0.53	1	F13HA_5265	NIMH-ChEFS
9.654	1	2	Incongruent	pCI	HAPPY	FEAR	HAPPY	0.759	1	M4HA_4877	NIMH-ChEFS
12.71	1	2.5	Incongruent	pII	FEAR	HAPPY	FEAR	0.583	1	F7FS_4016	NIMH-ChEFS
16.26	1	3	Congruent	n/a	HAPPY	HAPPY	HAPPY	0.484	1	F30HS_8495	NIMH-ChEFS
20.306	1	4	Congruent	n/a	FEAR	FEAR	FEAR	0.542	1	M4FA_4941	NIMH-ChEFS
25.352	1	2	Incongruent	pCI	FEAR	HAPPY	FEAR	0.68	1	F32FA_8053	NIMH-ChEFS
28.398	1	3.5	Incongruent	pII	HAPPY	FEAR	HAPPY	0.727	1	M10HS_6767	NIMH-ChEFS
32.946	1	2.5	Congruent	n/a	HAPPY	HAPPY	HAPPY	0.635	1	F23HA_7156	NIMH-ChEFS
36.492	1	3	Congruent	n/a	FEAR	FEAR	FEAR	0.531	1	F13FS_5292	NIMH-ChEFS
40.539	1	4	Incongruent	pCI	HAPPY	FEAR	HAPPY	0.668	1	F4HS_3664	NIMH-ChEFS
45.584	1	3	Incongruent	pII	HAPPY	FEAR	HAPPY	0.514	1	M20HA_9192	NIMH-ChEFS
49.629	1	2.5	Congruent	n/a	FEAR	FEAR	FEAR	0.484	1	F18FA_6243	NIMH-ChEFS
53.176	1	3.5	Congruent	n/a	HAPPY	HAPPY	HAPPY	0.665	1	M18HS_8848	NIMH-ChEFS
57.721	1	2	Incongruent	pCI	FEAR	HAPPY	FEAR	0.57	1	M14FS_7958	NIMH-ChEFS
60.772	1	4	Incongruent	pII	HAPPY	FEAR	HAPPY	0.497	1	F39HA_9433	NIMH-ChEFS
65.822	1	2.5	Congruent	n/a	FEAR	FEAR	FEAR	0.504	1	M10_FA_6823	NIMH-ChEFS
69.369	1	3.5	Congruent	n/a	HAPPY	HAPPY	HAPPY	0.55	1	F12HS_5000	NIMH-ChEFS
73.917	1	2	Incongruent	pCI	FEAR	HAPPY	FEAR	0.684	1	M17FA_8799	NIMH-ChEFS
76.964	1	3	Incongruent	pII	FEAR	HAPPY	FEAR	0.927	1	F2FS_3470	NIMH-ChEFS
81.011	1	2.5	Congruent	n/a	HAPPY	HAPPY	HAPPY	0.53	1	M14HA_7913	NIMH-ChEFS
84.558	1	2	Congruent	n/a	HAPPY	HAPPY	HAPPY	0.767	1	F7HA_3985	NIMH-ChEFS
87.606	1	4	Incongruent	pCI	FEAR	HAPPY	FEAR	0.683	1	M2FS_4636	NIMH-ChEFS
92.653	1	3	Incongruent	pII	HAPPY	FEAR	HAPPY	0.732	1	F18HS_6186	NIMH-ChEFS
96.698	1	3.5	Congruent	n/a	FEAR	FEAR	FEAR	0.533	1	F39FA_9489	NIMH-ChEFS
101.245	1	2	Congruent	n/a	HAPPY	HAPPY	HAPPY	0.499	1	M2HS_4493	NIMH-ChEFS
104.289	1	3	Incongruent	pCI	HAPPY	FEAR	HAPPY	0.955	1	F1HA_3424	NIMH-ChEFS
108.334	1	3.5	Incongruent	pII	FEAR	HAPPY	FEAR	0.684	1	M6FA__5449	NIMH-ChEFS
112.874	1	2.5	Congruent	n/a	FEAR	FEAR	FEAR	0.579	1	M19FS_9117	NIMH-ChEFS
116.419	1	4	Congruent	n/a	HAPPY	HAPPY	HAPPY	0.521	1	F35HS_8418	NIMH-ChEFS
121.467	1	3	Incongruent	pCI	FEAR	HAPPY	FEAR	0.647	1	F16FS_5978	NIMH-ChEFS
125.513	1	4	Incongruent	pII	FEAR	HAPPY	FEAR	0.661	1	M1FA_4336	NIMH-ChEFS
130.559	1	3.5	Congruent	n/a	HAPPY	HAPPY	HAPPY	0.58	1	M9HA_6057	NIMH-ChEFS
135.105	1	2.5	Congruent	n/a	FEAR	FEAR	FEAR	0.658	1	F4FA_3712	NIMH-ChEFS
138.646	1	2	Incongruent	pCI	HAPPY	FEAR	HAPPY	0.541	1	M15HS_8316	NIMH-ChEFS
141.693	1	2	Incongruent	pII	FEAR	HAPPY	FEAR	0.631	1	F21FS_6587	NIMH-ChEFS
144.737	1	4	Congruent	n/a	HAPPY	HAPPY	HAPPY	1.089	1	F19HA_6311	NIMH-ChEFS
149.79	1	3.5	Congruent	n/a	FEAR	FEAR	FEAR	0.626	1	M10_4FS_6817	NIMH-ChEFS
154.343	1	3	Incongruent	pCI	HAPPY	FEAR	HAPPY	0.629	1	F2HS_3448	NIMH-ChEFS
158.392	1	2.5	Incongruent	pII	HAPPY	FEAR	HAPPY	0.59	1	F10HA_4379	NIMH-ChEFS
161.94	1	4	Congruent	n/a	FEAR	FEAR	FEAR	0.535	1	M14FA_7960	NIMH-ChEFS
166.98	1	3	Congruent	n/a	FEAR	FEAR	FEAR	0.56	1	F30FA_8552	NIMH-ChEFS
171.024	1	3.5	Incongruent	pCI	HAPPY	FEAR	HAPPY	0.49	1	M8HA_5828	NIMH-ChEFS
175.566	1	2	Incongruent	pII	FEAR	HAPPY	FEAR	0.69	1	F35FS_8451	NIMH-ChEFS
178.613	1	2.5	Congruent	n/a	HAPPY	HAPPY	HAPPY	0.593	1	M1HS_4301	NIMH-ChEFS
182.159	1	2.5	Congruent	n/a	FEAR	FEAR	FEAR	0.676	1	F37FA_9020	NIMH-ChEFS
185.709	1	3.5	Incongruent	pCI	FEAR	HAPPY	HAPPY	0.574	0	M11FS_6953	NIMH-ChEFS
190.254	1	3	Incongruent	pII	HAPPY	FEAR	HAPPY	0.611	1	F34HA_8219	NIMH-ChEFS
194.299	1	4	Congruent	n/a	FEAR	FEAR	FEAR	0.567	1	F10FS_4426	NIMH-ChEFS
199.346	1	2	Congruent	n/a	HAPPY	HAPPY	HAPPY	0.528	1	M16HS_8633	NIMH-ChEFS
202.389	1	3	Incongruent	pCI	HAPPY	FEAR	HAPPY	0.529	1	M5HA_5140	NIMH-ChEFS
206.436	1	2	Incongruent	pII	FEAR	HAPPY	HAPPY	0.887	0	F12FA_5062	NIMH-ChEFS
209.478	1	3.5	Congruent	n/a	HAPPY	HAPPY	HAPPY	0.698	1	F16HS_5924	NIMH-ChEFS
214.026	1	4	Congruent	n/a	FEAR	FEAR	FEAR	0.806	1	M2FA_4644	NIMH-ChEFS
219.071	1	2.5	Incongruent	pCI	FEAR	HAPPY	FEAR	0.772	1	M16FS_8676	NIMH-ChEFS
222.616	1	3.5	Incongruent	pII	HAPPY	FEAR	HAPPY	0.688	1	F6HA_3882	NIMH-ChEFS
227.16	1	4	Congruent	n/a	FEAR	FEAR	FEAR	0.628	1	F19FS_6344	NIMH-ChEFS
232.232	1	2.5	Congruent	n/a	FEAR	FEAR	FEAR	0.629	1	M8FA_5885	NIMH-ChEFS
235.775	1	2	Incongruent	pCI	HAPPY	FEAR	HAPPY	0.507	1	F32HS_7996	NIMH-ChEFS
238.815	1	3	Incongruent	pII	HAPPY	FEAR	HAPPY	0.682	1	M19HA_9066	NIMH-ChEFS
242.859	1	2.5	Congruent	n/a	FEAR	FEAR	FEAR	0.651	1	M3FS_4775	NIMH-ChEFS
246.406	1	4	Congruent	n/a	HAPPY	HAPPY	HAPPY	0.548	1	F3HA_3545	NIMH-ChEFS
251.452	1	3	Incongruent	pCI	FEAR	HAPPY	FEAR	0.907	1	M9FA_6121	NIMH-ChEFS
255.499	1	2	Incongruent	pII	FEAR	HAPPY	HAPPY	0.519	0	F14FA_5638	NIMH-ChEFS
258.541	1	3.5	Congruent	n/a	HAPPY	HAPPY	HAPPY	0.603	1	M6HS_5354	NIMH-ChEFS
263.088	1	2.5	Congruent	n/a	HAPPY	HAPPY	HAPPY	0.692	1	F21HS_6544	NIMH-ChEFS
266.634	1	2	Incongruent	pCI	FEAR	HAPPY	FEAR	0.733	1	M17FS_8783	NIMH-ChEFS
269.679	1	3	Incongruent	pII	HAPPY	FEAR	HAPPY	0.636	1	F37HA_8965	NIMH-ChEFS
273.726	1	3.5	Congruent	n/a	HAPPY	HAPPY	HAPPY	0.883	1	M12HA_7030	NIMH-ChEFS
278.272	1	4	Congruent	n/a	FEAR	FEAR	FEAR	0.769	1	F31FS_7861	NIMH-ChEFS
283.318	1	2	Incongruent	pCI	FEAR	HAPPY	FEAR	0.723	1	F3FA_3605	NIMH-ChEFS
286.364	1	4	Incongruent	pII	HAPPY	FEAR	HAPPY	0.592	1	M3HS_4695	NIMH-ChEFS
291.41	1	3	Congruent	n/a	FEAR	FEAR	FEAR	0.621	1	M11FA_6969	NIMH-ChEFS
295.457	1	3.5	Congruent	n/a	HAPPY	HAPPY	HAPPY	0.653	1	F14HS_5590	NIMH-ChEFS
300.003	1	2.5	Incongruent	pCI	FEAR	HAPPY	FEAR	0.699	1	M12FS_7070	NIMH-ChEFS
303.55	1	3.5	Incongruent	pII	FEAR	HAPPY	FEAR	0.669	1	F6FS_3906	NIMH-ChEFS
308.095	1	2	Congruent	n/a	HAPPY	HAPPY	HAPPY	0.529	1	M7HA_5500	NIMH-ChEFS
311.139	1	4	Congruent	n/a	FEAR	FEAR	FEAR	0.608	1	F23FA_7228	NIMH-ChEFS
316.183	1	3	Incongruent	pCI	HAPPY	FEAR	HAPPY	0.664	1	F31HA_8583	NIMH-ChEFS
320.227	1	2.5	Incongruent	pII	HAPPY	FEAR	HAPPY	0.622	1	M11HS_6885	NIMH-ChEFS
323.772	1	2.5	Congruent	n/a	FEAR	FEAR	FEAR	0.954	1	M3FA_4789	NIMH-ChEFS
327.317	1	2	Congruent	n/a	FEAR	FEAR	FEAR	0.669	1	F34FS_8257	NIMH-ChEFS
330.359	1	3	Incongruent	pCI	HAPPY	FEAR	HAPPY	0.561	1	M17HS_8732	NIMH-ChEFS
334.405	1	3.5	Incongruent	pII	FEAR	HAPPY	FEAR	0.708	1	F7FA_4040	NIMH-ChEFS
338.95	1	4	Congruent	n/a	HAPPY	HAPPY	HAPPY	0.613	1	F10HS_4372	NIMH-ChEFS
343.996	1	2	Congruent	n/a	FEAR	FEAR	FEAR	0.485	1	M1FS_4325	NIMH-ChEFS
347.042	1	3.5	Incongruent	pCI	FEAR	HAPPY	FEAR	0.642	1	M6_1FA_5445	NIMH-ChEFS
351.589	1	4	Incongruent	pII	HAPPY	FEAR	HAPPY	0.595	1	F35HA_8422	NIMH-ChEFS
356.636	1	3	Congruent	n/a	HAPPY	HAPPY	FEAR	0.773	0	M16HA_8638	NIMH-ChEFS
360.681	1	2.5	Congruent	n/a	FEAR	FEAR	FEAR	0.714	1	F12FS_5036	NIMH-ChEFS
364.226	1	2	Incongruent	pCI	HAPPY	FEAR	HAPPY	0.938	1	F1HS_3423	NIMH-ChEFS
367.267	1	3.5	Incongruent	pII	FEAR	HAPPY	FEAR	0.704	1	M7FA_5539	NIMH-ChEFS
371.812	1	3	Congruent	n/a	FEAR	FEAR	FEAR	0.638	1	F34FA_8267	NIMH-ChEFS
375.857	1	2.5	Congruent	n/a	HAPPY	HAPPY	HAPPY	0.719	1	M8HS_5817	NIMH-ChEFS
379.403	1	4	Incongruent	pCI	FEAR	HAPPY	FEAR	0.704	1	F23FS_7205	NIMH-ChEFS
384.442	1	2.5	Incongruent	pII	HAPPY	FEAR	HAPPY	0.589	1	M1HA_4302	NIMH-ChEFS
387.984	1	3	Congruent	n/a	FEAR	FEAR	FEAR	0.684	1	M5FS_5188	NIMH-ChEFS
392.031	1	2	Congruent	n/a	HAPPY	HAPPY	HAPPY	0.614	1	F18HA_6193	NIMH-ChEFS
395.076	1	4	Incongruent	pCI	FEAR	HAPPY	FEAR	0.94	1	M20FA_9277	NIMH-ChEFS
400.12	1	3.5	Incongruent	pII	FEAR	HAPPY	FEAR	0.605	1	F10FA_4434	NIMH-ChEFS
404.666	1	3.5	Congruent	n/a	HAPPY	HAPPY	HAPPY	0.451	1	F7HS_3986	NIMH-ChEFS
409.214	1	2.5	Congruent	n/a	HAPPY	HAPPY	HAPPY	0.792	1	M12HS_7022	NIMH-ChEFS
412.761	1	3	Incongruent	pCI	FEAR	HAPPY	FEAR	0.677	1	M7FS_5530	NIMH-ChEFS
416.805	1	2	Incongruent	pII	HAPPY	FEAR	HAPPY	0.729	1	F21HA_6550	NIMH-ChEFS
419.851	1	4	Congruent	n/a	HAPPY	HAPPY	HAPPY	0.717	1	M17HA_8742	NIMH-ChEFS
424.894	1	3	Congruent	n/a	FEAR	FEAR	FEAR	0.811	1	F39FS_9475	NIMH-ChEFS
428.94	1	3.5	Incongruent	pCI	HAPPY	FEAR	HAPPY	0.56	1	M11HA_6890	NIMH-ChEFS
433.488	1	4	Incongruent	pII	FEAR	HAPPY	FEAR	0.558	1	F19FA_6353	NIMH-ChEFS
438.532	1	2.5	Congruent	n/a	FEAR	FEAR	FEAR	0.631	1	M15FA_8374	NIMH-ChEFS
442.078	1	2	Congruent	n/a	HAPPY	HAPPY	HAPPY	0.564	1	F13HS_5255	NIMH-ChEFS
445.124	1	2.5	Incongruent	pCI	HAPPY	FEAR	HAPPY	0.579	1	M20HS_9191	NIMH-ChEFS
448.672	1	3	Incongruent	pII	FEAR	HAPPY	FEAR	0.652	1	M6FS_5422	NIMH-ChEFS
452.717	1	3.5	Congruent	n/a	HAPPY	HAPPY	HAPPY	0.606	1	F16HA_5934	NIMH-ChEFS
457.287	1	2	Congruent	n/a	FEAR	FEAR	FEAR	0.621	1	M18FA_8913	NIMH-ChEFS
460.331	1	4	Incongruent	pCI	HAPPY	FEAR	HAPPY	0.557	1	F39HS_9426	NIMH-ChEFS
465.375	1	4	Incongruent	pII	FEAR	HAPPY	FEAR	0.645	1	F3FS_3596	NIMH-ChEFS
470.422	1	3	Congruent	n/a	FEAR	FEAR	FEAR	0.526	1	M8FS_5869	NIMH-ChEFS
474.474	1	2	Congruent	n/a	HAPPY	HAPPY	HAPPY	0.617	1	M4HS_4862	NIMH-ChEFS
477.519	1	3.5	Incongruent	pCI	HAPPY	FEAR	FEAR	0.646	0	F2HA_3451	NIMH-ChEFS
482.063	1	2.5	Incongruent	pII	HAPPY	FEAR	HAPPY	0.749	1	M10HA_6772	NIMH-ChEFS
485.604	1	4	Congruent	n/a	FEAR	FEAR	FEAR	0.707	1	F18FS_6229	NIMH-ChEFS
490.655	1	3.5	Congruent	n/a	HAPPY	HAPPY	HAPPY	0.61	1	F31HS_8581	NIMH-ChEFS
495.194	1	2	Incongruent	pCI	FEAR	HAPPY	FEAR	0.746	1	M12FA_7082	NIMH-ChEFS
498.238	1	3	Incongruent	pII	HAPPY	FEAR	HAPPY	0.806	1	F12HA_5004	NIMH-ChEFS
502.282	1	2.5	Congruent	n/a	FEAR	FEAR	FEAR	0.682	1	F6FA_3922	NIMH-ChEFS
505.826	1	2.5	Congruent	n/a	HAPPY	HAPPY	HAPPY	0.56	1	M5HS_5134	NIMH-ChEFS
509.37	1	2	Incongruent	pCI	HAPPY	FEAR	HAPPY	0.588	1	M14HS_7912	NIMH-ChEFS
512.417	1	3	Incongruent	pII	FEAR	HAPPY	FEAR	0.677	1	F32FS_8041	NIMH-ChEFS
516.461	1	3.5	Congruent	n/a	FEAR	FEAR	FEAR	0.886	1	M19FA_9129	NIMH-ChEFS
521.008	1	4	Congruent	n/a	HAPPY	HAPPY	HAPPY	0.581	1	F34HS_8209	NIMH-ChEFS
526.053	1	4	Incongruent	pCI	HAPPY	FEAR	HAPPY	0.651	1	M18HA_8854	NIMH-ChEFS
531.097	1	2.5	Incongruent	pII	FEAR	HAPPY	FEAR	0.631	1	F16FA_5992	NIMH-ChEFS
534.644	1	2	Congruent	n/a	FEAR	FEAR	FEAR	0.719	1	F37FS_9007	NIMH-ChEFS
537.69	1	3	Congruent	n/a	HAPPY	HAPPY	HAPPY	0.691	1	M3HA_4707	NIMH-ChEFS
541.733	1	3.5	Incongruent	pCI	FEAR	HAPPY	FEAR	0.799	1	M15FS_8364	NIMH-ChEFS
546.279	1	4	Incongruent	pII	FEAR	HAPPY	FEAR	0.688	1	F13FA_5314	NIMH-ChEFS
551.325	1	3	Congruent	n/a	HAPPY	HAPPY	HAPPY	0.538	1	F14HA_5595	NIMH-ChEFS
555.372	1	2.5	Congruent	n/a	FEAR	FEAR	FEAR	0.752	1	M5FA_5198	NIMH-ChEFS
558.917	1	2	Incongruent	pCI	FEAR	HAPPY	FEAR	0.658	1	F2FA_3491	NIMH-ChEFS
561.961	1	3.5	Incongruent	pII	HAPPY	FEAR	HAPPY	0.747	1	F23HS_7148	NIMH-ChEFS
566.507	1	2.5	Congruent	n/a	FEAR	FEAR	FEAR	0.693	1	M18FS_8888	NIMH-ChEFS
570.053	1	3.5	Congruent	n/a	HAPPY	HAPPY	HAPPY	0.72	1	F30HA_8500	NIMH-ChEFS
574.598	1	4	Incongruent	pCI	HAPPY	FEAR	HAPPY	0.589	1	M7HS_5497	NIMH-ChEFS
579.644	1	3	Incongruent	pII	FEAR	HAPPY	FEAR	0.548	1	F14FS_5632	NIMH-ChEFS
583.692	1	2	Congruent	n/a	HAPPY	HAPPY	HAPPY	0.637	1	M2HA_4506	NIMH-ChEFS
586.737	1	4	Congruent	n/a	FEAR	FEAR	FEAR	0.81	1	F21FA_6608	NIMH-ChEFS
591.782	1	3	Incongruent	pCI	HAPPY	FEAR	FEAR	0.681	0	F6HS_3875	NIMH-ChEFS
595.821	1	3.5	Incongruent	pII	HAPPY	FEAR	HAPPY	0.956	1	M19HS_9059	NIMH-ChEFS
600.367	1	2.5	Congruent	n/a	FEAR	FEAR	FEAR	0.645	1	F4FS_3704	NIMH-ChEFS
603.914	1	2	Congruent	n/a	HAPPY	HAPPY	HAPPY	0.666	1	F32HA_7998	NIMH-ChEFS
606.958	1	2.5	Incongruent	pCI	HAPPY	FEAR	HAPPY	0.661	1	M6HA_5360	NIMH-ChEFS
610.504	1	2	Incongruent	pII	FEAR	HAPPY	FEAR	0.69	1	M16FA_8681	NIMH-ChEFS
613.549	1	4	Congruent	n/a	HAPPY	HAPPY	HAPPY	0.758	1	F19HS_6297	NIMH-ChEFS
618.594	1	3	Congruent	n/a	FEAR	FEAR	FEAR	0.488	1	F35FA_8465	NIMH-ChEFS
622.642	1	3.5	Incongruent	pCI	FEAR	HAPPY	FEAR	0.773	1	M4FS_4935	NIMH-ChEFS
627.213	1	2	Incongruent	pII	HAPPY	FEAR	HAPPY	0.59	1	F37HS_8954	NIMH-ChEFS
630.258	1	2.5	Congruent	n/a	FEAR	FEAR	FEAR	0.757	1	F30FS_8546	NIMH-ChEFS
633.805	1	3.5	Congruent	n/a	HAPPY	HAPPY	HAPPY	0.596	1	M9HS_6054	NIMH-ChEFS
638.351	1	3	Incongruent	pCI	FEAR	HAPPY	FEAR	0.572	1	F31FA_7873	NIMH-ChEFS
642.394	1	4	Incongruent	pII	HAPPY	FEAR	HAPPY	0.69	1	F4HA_3668	NIMH-ChEFS
647.439	1	2	Congruent	n/a	HAPPY	HAPPY	HAPPY	0.718	1	M15HA_8321	NIMH-ChEFS
650.484	1	3.5	Incongruent	pCI	HAPPY	FEAR	HAPPY	0.624	1	F3HS_3540	NIMH-ChEFS
655.03	1	4	Incongruent	pII	FEAR	HAPPY	FEAR	0.501	1	M20FS_9236	NIMH-ChEFS
