onset	duration	interstimulus_interval	trial_type	trial_type_2	target_condition	distractor	response	response_time	correct	identifier	database
0.061	1	3	Congruent	n/a	FEAR	FEAR	HAPPY	1.263	0	M9FS_6104	NIMH-ChEFS
4.149	1	4	Congruent	n/a	HAPPY	HAPPY	FEAR	0.52	0	F13HA_5265	NIMH-ChEFS
9.229	1	2.5	Incongruent	pCI	HAPPY	FEAR	HAPPY	0.69	1	M4HA_4877	NIMH-ChEFS
12.823	1	2	Incongruent	pII	FEAR	HAPPY	HAPPY	0.936	0	F7FS_4016	NIMH-ChEFS
15.898	1	3.5	Congruent	n/a	HAPPY	HAPPY	FEAR	0.686	0	F30HS_8495	NIMH-ChEFS
20.47	1	2	Congruent	n/a	FEAR	FEAR	HAPPY	0.979	0	M4FA_4941	NIMH-ChEFS
23.544	1	3.5	Incongruent	pCI	FEAR	HAPPY	HAPPY	0.79	0	F32FA_8053	NIMH-ChEFS
28.115	1	3	Incongruent	pII	HAPPY	FEAR	FEAR	1.159	0	M10HS_6767	NIMH-ChEFS
32.189	1	4	Congruent	n/a	HAPPY	HAPPY	FEAR	0.685	0	F23HA_7156	NIMH-ChEFS
37.261	1	2.5	Congruent	n/a	FEAR	FEAR	HAPPY	0.773	0	F13FS_5292	NIMH-ChEFS
40.832	1	3.5	Incongruent	pCI	HAPPY	FEAR	FEAR	1.072	0	F4HS_3664	NIMH-ChEFS
45.407	1	2	Incongruent	pII	HAPPY	FEAR	FEAR	0.672	0	M20HA_9192	NIMH-ChEFS
48.475	1	2.5	Congruent	n/a	FEAR	FEAR	HAPPY	0.784	0	F18FA_6243	NIMH-ChEFS
52.05	1	3	Congruent	n/a	HAPPY	HAPPY	FEAR	0.589	0	M18HS_8848	NIMH-ChEFS
56.093	1	4	Incongruent	pCI	FEAR	HAPPY	FEAR	0.946	1	M14FS_7958	NIMH-ChEFS
61.167	1	3	Incongruent	pII	HAPPY	FEAR	FEAR	0.797	0	F39HA_9433	NIMH-ChEFS
65.24	1	4	Congruent	n/a	FEAR	FEAR	HAPPY	0.809	0	M10_FA_6823	NIMH-ChEFS
70.315	1	3.5	Congruent	n/a	HAPPY	HAPPY	FEAR	0.734	0	F12HS_5000	NIMH-ChEFS
74.885	1	2.5	Incongruent	pCI	FEAR	HAPPY	HAPPY	0.989	0	M17FA_8799	NIMH-ChEFS
78.457	1	2	Incongruent	pII	FEAR	HAPPY	HAPPY	0.967	0	F2FS_3470	NIMH-ChEFS
81.533	1	2	Congruent	n/a	HAPPY	HAPPY	FEAR	0.706	0	M14HA_7913	NIMH-ChEFS
84.603	1	3	Congruent	n/a	HAPPY	HAPPY	FEAR	0.701	0	F7HA_3985	NIMH-ChEFS
88.677	1	4	Incongruent	pCI	FEAR	HAPPY	HAPPY	0.892	0	M2FS_4636	NIMH-ChEFS
93.752	1	2.5	Incongruent	pII	HAPPY	FEAR	FEAR	0.917	0	F18HS_6186	NIMH-ChEFS
97.324	1	3.5	Congruent	n/a	FEAR	FEAR	HAPPY	1.13	0	F39FA_9489	NIMH-ChEFS
101.898	1	3	Congruent	n/a	HAPPY	HAPPY	FEAR	0.645	0	M2HS_4493	NIMH-ChEFS
105.971	1	4	Incongruent	pCI	HAPPY	FEAR	FEAR	0.853	0	F1HA_3424	NIMH-ChEFS
111.05	1	2	Incongruent	pII	FEAR	HAPPY	HAPPY	0.869	0	M6FA__5449	NIMH-ChEFS
114.12	1	2.5	Congruent	n/a	FEAR	FEAR	FEAR	0.794	1	M19FS_9117	NIMH-ChEFS
117.694	1	3.5	Congruent	n/a	HAPPY	HAPPY	FEAR	0.695	0	F35HS_8418	NIMH-ChEFS
122.27	1	2	Incongruent	pCI	FEAR	HAPPY	HAPPY	0.874	0	F16FS_5978	NIMH-ChEFS
125.343	1	3	Incongruent	pII	FEAR	HAPPY	HAPPY	0.906	0	M1FA_4336	NIMH-ChEFS
129.416	1	2.5	Congruent	n/a	HAPPY	HAPPY	FEAR	0.738	0	M9HA_6057	NIMH-ChEFS
132.99	1	4	Congruent	n/a	FEAR	FEAR	HAPPY	0.859	0	F4FA_3712	NIMH-ChEFS
138.063	1	3.5	Incongruent	pCI	HAPPY	FEAR	FEAR	0.771	0	M15HS_8316	NIMH-ChEFS
142.641	1	4	Incongruent	pII	FEAR	HAPPY	HAPPY	0.758	0	F21FS_6587	NIMH-ChEFS
147.717	1	2	Congruent	n/a	HAPPY	HAPPY	FEAR	0.662	0	F19HA_6311	NIMH-ChEFS
150.762	1	2.5	Congruent	n/a	FEAR	FEAR	HAPPY	0.642	0	M10_4FS_6817	NIMH-ChEFS
154.343	1	3.5	Incongruent	pCI	HAPPY	FEAR	FEAR	0.896	0	F2HS_3448	NIMH-ChEFS
158.917	1	3	Incongruent	pII	HAPPY	FEAR	FEAR	0.702	0	F10HA_4379	NIMH-ChEFS
162.995	1	3.5	Congruent	n/a	FEAR	FEAR	HAPPY	0.539	0	M14FA_7960	NIMH-ChEFS
167.575	1	4	Congruent	n/a	FEAR	FEAR	HAPPY	0.939	0	F30FA_8552	NIMH-ChEFS
172.653	1	2.5	Incongruent	pCI	HAPPY	FEAR	FEAR	0.686	0	M8HA_5828	NIMH-ChEFS
176.229	1	2	Incongruent	pII	FEAR	HAPPY	HAPPY	0.745	0	F35FS_8451	NIMH-ChEFS
179.309	1	3	Congruent	n/a	HAPPY	HAPPY	FEAR	1.215	0	M1HS_4301	NIMH-ChEFS
183.386	1	2.5	Congruent	n/a	FEAR	FEAR	HAPPY	0.608	0	F37FA_9020	NIMH-ChEFS
186.963	1	3.5	Incongruent	pCI	FEAR	HAPPY	FEAR	0.766	1	M11FS_6953	NIMH-ChEFS
191.543	1	2	Incongruent	pII	HAPPY	FEAR	FEAR	0.731	0	F34HA_8219	NIMH-ChEFS
194.617	1	4	Congruent	n/a	FEAR	FEAR	HAPPY	0.727	0	F10FS_4426	NIMH-ChEFS
199.691	1	3	Congruent	n/a	HAPPY	HAPPY	FEAR	0.663	0	M16HS_8633	NIMH-ChEFS
203.769	1	2	Incongruent	pCI	HAPPY	FEAR	FEAR	1.085	0	M5HA_5140	NIMH-ChEFS
206.848	1	4	Incongruent	pII	FEAR	HAPPY	FEAR	0.576	1	F12FA_5062	NIMH-ChEFS
211.926	1	3.5	Congruent	n/a	HAPPY	HAPPY	FEAR	0.728	0	F16HS_5924	NIMH-ChEFS
216.51	1	3	Congruent	n/a	FEAR	FEAR	HAPPY	0.614	0	M2FA_4644	NIMH-ChEFS
220.592	1	2.5	Incongruent	pCI	FEAR	HAPPY	HAPPY	0.907	0	M16FS_8676	NIMH-ChEFS
224.166	1	3	Incongruent	pII	HAPPY	FEAR	FEAR	0.803	0	F6HA_3882	NIMH-ChEFS
228.242	1	2	Congruent	n/a	FEAR	FEAR	HAPPY	0.686	0	F19FS_6344	NIMH-ChEFS
231.323	1	3.5	Congruent	n/a	FEAR	FEAR	HAPPY	0.721	0	M8FA_5885	NIMH-ChEFS
235.894	1	4	Incongruent	pCI	HAPPY	FEAR	FEAR	0.84	0	F32HS_7996	NIMH-ChEFS
240.967	1	2.5	Incongruent	pII	HAPPY	FEAR	FEAR	0.897	0	M19HA_9066	NIMH-ChEFS
244.537	1	2	Congruent	n/a	FEAR	FEAR	HAPPY	0.787	0	M3FS_4775	NIMH-ChEFS
247.616	1	4	Congruent	n/a	HAPPY	HAPPY	FEAR	0.668	0	F3HA_3545	NIMH-ChEFS
252.694	1	3.5	Incongruent	pCI	FEAR	HAPPY	HAPPY	0.945	0	M9FA_6121	NIMH-ChEFS
257.274	1	3	Incongruent	pII	FEAR	HAPPY	HAPPY	0.89	0	F14FA_5638	NIMH-ChEFS
261.355	1	2.5	Congruent	n/a	HAPPY	HAPPY	FEAR	0.704	0	M6HS_5354	NIMH-ChEFS
264.936	1	3.5	Congruent	n/a	HAPPY	HAPPY	FEAR	0.928	0	F21HS_6544	NIMH-ChEFS
269.52	1	2	Incongruent	pCI	FEAR	HAPPY	HAPPY	0.909	0	M17FS_8783	NIMH-ChEFS
272.596	1	2.5	Incongruent	pII	HAPPY	FEAR	FEAR	0.788	0	F37HA_8965	NIMH-ChEFS
276.143	1	4	Congruent	n/a	HAPPY	HAPPY	FEAR	0.746	0	M12HA_7030	NIMH-ChEFS
281.21	1	3	Congruent	n/a	FEAR	FEAR	HAPPY	1.014	0	F31FS_7861	NIMH-ChEFS
285.29	1	4	Incongruent	pCI	FEAR	HAPPY	HAPPY	1.204	0	F3FA_3605	NIMH-ChEFS
290.369	1	2	Incongruent	pII	HAPPY	FEAR	FEAR	0.975	0	M3HS_4695	NIMH-ChEFS
293.447	1	2.5	Congruent	n/a	FEAR	FEAR	HAPPY	0.757	0	M11FA_6969	NIMH-ChEFS
297.023	1	3.5	Congruent	n/a	HAPPY	HAPPY	FEAR	0.691	0	F14HS_5590	NIMH-ChEFS
301.573	1	3	Incongruent	pCI	FEAR	HAPPY	HAPPY	0.796	0	M12FS_7070	NIMH-ChEFS
305.649	1	2	Incongruent	pII	FEAR	HAPPY	HAPPY	0.815	0	F6FS_3906	NIMH-ChEFS
308.728	1	3.5	Congruent	n/a	HAPPY	HAPPY	FEAR	0.661	0	M7HA_5500	NIMH-ChEFS
313.299	1	3	Congruent	n/a	FEAR	FEAR	HAPPY	0.82	0	F23FA_7228	NIMH-ChEFS
317.371	1	2.5	Incongruent	pCI	HAPPY	FEAR	FEAR	0.738	0	F31HA_8583	NIMH-ChEFS
320.939	1	4	Incongruent	pII	HAPPY	FEAR	FEAR	0.715	0	M11HS_6885	NIMH-ChEFS
326.01	1	4	Congruent	n/a	FEAR	FEAR	HAPPY	0.674	0	M3FA_4789	NIMH-ChEFS
331.082	1	3	Congruent	n/a	FEAR	FEAR	HAPPY	0.882	0	F34FS_8257	NIMH-ChEFS
335.154	1	3.5	Incongruent	pCI	HAPPY	FEAR	HAPPY	0.665	1	M17HS_8732	NIMH-ChEFS
339.727	1	2.5	Incongruent	pII	FEAR	HAPPY	FEAR	0.832	1	F7FA_4040	NIMH-ChEFS
343.3	1	2	Congruent	n/a	HAPPY	HAPPY	FEAR	0.709	0	F10HS_4372	NIMH-ChEFS
346.377	1	2	Congruent	n/a	FEAR	FEAR	HAPPY	0.807	0	M1FS_4325	NIMH-ChEFS
349.451	1	3	Incongruent	pCI	FEAR	HAPPY	HAPPY	1.184	0	M6_1FA_5445	NIMH-ChEFS
353.525	1	2.5	Incongruent	pII	HAPPY	FEAR	FEAR	0.78	0	F35HA_8422	NIMH-ChEFS
357.099	1	4	Congruent	n/a	HAPPY	HAPPY	HAPPY	0.966	1	M16HA_8638	NIMH-ChEFS
362.171	1	3.5	Congruent	n/a	FEAR	FEAR	HAPPY	0.879	0	F12FS_5036	NIMH-ChEFS
366.744	1	3.5	Incongruent	pCI	HAPPY	FEAR	FEAR	0.936	0	F1HS_3423	NIMH-ChEFS
371.318	1	2	Incongruent	pII	FEAR	HAPPY	HAPPY	1.102	0	M7FA_5539	NIMH-ChEFS
374.365	1	2.5	Congruent	n/a	FEAR	FEAR	no_resp	-0.099	0	F34FA_8267	NIMH-ChEFS
377.912	1	3	Congruent	n/a	HAPPY	HAPPY	FEAR	0.658	0	M8HS_5817	NIMH-ChEFS
381.985	1	4	Incongruent	pCI	FEAR	HAPPY	HAPPY	0.94	0	F23FS_7205	NIMH-ChEFS
387.065	1	2	Incongruent	pII	HAPPY	FEAR	FEAR	0.89	0	M1HA_4302	NIMH-ChEFS
390.147	1	4	Congruent	n/a	FEAR	FEAR	HAPPY	0.748	0	M5FS_5188	NIMH-ChEFS
395.228	1	3.5	Congruent	n/a	HAPPY	HAPPY	FEAR	0.732	0	F18HA_6193	NIMH-ChEFS
399.81	1	2.5	Incongruent	pCI	FEAR	HAPPY	HAPPY	0.865	0	M20FA_9277	NIMH-ChEFS
403.38	1	3	Incongruent	pII	FEAR	HAPPY	HAPPY	0.825	0	F10FA_4434	NIMH-ChEFS
407.46	1	3.5	Congruent	n/a	HAPPY	HAPPY	FEAR	0.55	0	F7HS_3986	NIMH-ChEFS
412.034	1	3	Congruent	n/a	HAPPY	HAPPY	FEAR	0.791	0	M12HS_7022	NIMH-ChEFS
416.11	1	2	Incongruent	pCI	FEAR	HAPPY	HAPPY	0.735	0	M7FS_5530	NIMH-ChEFS
419.183	1	2.5	Incongruent	pII	HAPPY	FEAR	HAPPY	1.202	1	F21HA_6550	NIMH-ChEFS
422.759	1	4	Congruent	n/a	HAPPY	HAPPY	no_resp	-0.099	0	M17HA_8742	NIMH-ChEFS
427.8	1	3.5	Congruent	n/a	FEAR	FEAR	HAPPY	0.78	0	F39FS_9475	NIMH-ChEFS
432.378	1	4	Incongruent	pCI	HAPPY	FEAR	FEAR	0.697	0	M11HA_6890	NIMH-ChEFS
437.449	1	3	Incongruent	pII	FEAR	HAPPY	HAPPY	0.831	0	F19FA_6353	NIMH-ChEFS
441.518	1	2.5	Congruent	n/a	FEAR	FEAR	HAPPY	0.922	0	M15FA_8374	NIMH-ChEFS
445.091	1	2	Congruent	n/a	HAPPY	HAPPY	FEAR	0.694	0	F13HS_5255	NIMH-ChEFS
448.165	1	3.5	Incongruent	pCI	HAPPY	FEAR	FEAR	0.995	0	M20HS_9191	NIMH-ChEFS
452.738	1	4	Incongruent	pII	FEAR	HAPPY	HAPPY	0.792	0	M6FS_5422	NIMH-ChEFS
457.81	1	2.5	Congruent	n/a	HAPPY	HAPPY	FEAR	0.565	0	F16HA_5934	NIMH-ChEFS
461.384	1	3	Congruent	n/a	FEAR	FEAR	HAPPY	0.836	0	M18FA_8913	NIMH-ChEFS
465.456	1	2	Incongruent	pCI	HAPPY	FEAR	FEAR	0.699	0	F39HS_9426	NIMH-ChEFS
468.535	1	3.5	Incongruent	pII	FEAR	HAPPY	HAPPY	0.88	0	F3FS_3596	NIMH-ChEFS
473.108	1	2	Congruent	n/a	FEAR	FEAR	HAPPY	0.907	0	M8FS_5869	NIMH-ChEFS
476.188	1	2.5	Congruent	n/a	HAPPY	HAPPY	FEAR	0.657	0	M4HS_4862	NIMH-ChEFS
479.765	1	3	Incongruent	pCI	HAPPY	FEAR	FEAR	0.63	0	F2HA_3451	NIMH-ChEFS
483.845	1	4	Incongruent	pII	HAPPY	FEAR	FEAR	1.07	0	M10HA_6772	NIMH-ChEFS
488.921	1	2	Congruent	n/a	FEAR	FEAR	HAPPY	0.719	0	F18FS_6229	NIMH-ChEFS
491.991	1	2.5	Congruent	n/a	HAPPY	HAPPY	FEAR	0.759	0	F31HS_8581	NIMH-ChEFS
495.568	1	3	Incongruent	pCI	FEAR	HAPPY	HAPPY	0.902	0	M12FA_7082	NIMH-ChEFS
499.646	1	3.5	Incongruent	pII	HAPPY	FEAR	FEAR	0.704	0	F12HA_5004	NIMH-ChEFS
504.221	1	4	Congruent	n/a	FEAR	FEAR	no_resp	-0.099	0	F6FA_3922	NIMH-ChEFS
509.265	1	4	Congruent	n/a	HAPPY	HAPPY	FEAR	0.755	0	M5HS_5134	NIMH-ChEFS
514.343	1	2.5	Incongruent	pCI	HAPPY	FEAR	FEAR	0.762	0	M14HS_7912	NIMH-ChEFS
517.917	1	2	Incongruent	pII	FEAR	HAPPY	HAPPY	1.023	0	F32FS_8041	NIMH-ChEFS
520.988	1	3	Congruent	n/a	FEAR	FEAR	HAPPY	0.702	0	M19FA_9129	NIMH-ChEFS
525.059	1	3.5	Congruent	n/a	HAPPY	HAPPY	FEAR	0.781	0	F34HS_8209	NIMH-ChEFS
529.631	1	3	Incongruent	pCI	HAPPY	FEAR	FEAR	0.664	0	M18HA_8854	NIMH-ChEFS
533.704	1	3.5	Incongruent	pII	FEAR	HAPPY	HAPPY	0.626	0	F16FA_5992	NIMH-ChEFS
538.279	1	4	Congruent	n/a	FEAR	FEAR	HAPPY	0.661	0	F37FS_9007	NIMH-ChEFS
543.354	1	2.5	Congruent	n/a	HAPPY	HAPPY	FEAR	0.551	0	M3HA_4707	NIMH-ChEFS
546.926	1	2	Incongruent	pCI	FEAR	HAPPY	HAPPY	0.834	0	M15FS_8364	NIMH-ChEFS
549.999	1	3.5	Incongruent	pII	FEAR	HAPPY	HAPPY	0.921	0	F13FA_5314	NIMH-ChEFS
554.574	1	2	Congruent	n/a	HAPPY	HAPPY	FEAR	0.571	0	F14HA_5595	NIMH-ChEFS
557.645	1	3	Congruent	n/a	FEAR	FEAR	HAPPY	0.775	0	M5FA_5198	NIMH-ChEFS
561.694	1	4	Incongruent	pCI	FEAR	HAPPY	HAPPY	0.956	0	F2FA_3491	NIMH-ChEFS
566.766	1	2.5	Incongruent	pII	HAPPY	FEAR	FEAR	0.629	0	F23HS_7148	NIMH-ChEFS
570.337	1	3	Congruent	n/a	FEAR	FEAR	HAPPY	1.103	0	M18FS_8888	NIMH-ChEFS
574.395	1	2	Congruent	n/a	HAPPY	HAPPY	FEAR	0.58	0	F30HA_8500	NIMH-ChEFS
577.477	1	2.5	Incongruent	pCI	HAPPY	FEAR	FEAR	0.903	0	M7HS_5497	NIMH-ChEFS
581.049	1	3.5	Incongruent	pII	FEAR	HAPPY	HAPPY	1.081	0	F14FS_5632	NIMH-ChEFS
585.624	1	4	Congruent	n/a	HAPPY	HAPPY	FEAR	0.841	0	M2HA_4506	NIMH-ChEFS
590.695	1	2	Congruent	n/a	FEAR	FEAR	HAPPY	0.65	0	F21FA_6608	NIMH-ChEFS
593.768	1	3.5	Incongruent	pCI	HAPPY	FEAR	FEAR	0.932	0	F6HS_3875	NIMH-ChEFS
598.343	1	2.5	Incongruent	pII	HAPPY	FEAR	HAPPY	0.882	1	M19HS_9059	NIMH-ChEFS
601.914	1	3	Congruent	n/a	FEAR	FEAR	HAPPY	0.726	0	F4FS_3704	NIMH-ChEFS
605.991	1	4	Congruent	n/a	HAPPY	HAPPY	FEAR	0.674	0	F32HA_7998	NIMH-ChEFS
611.066	1	3	Incongruent	pCI	HAPPY	FEAR	FEAR	0.739	0	M6HA_5360	NIMH-ChEFS
615.143	1	4	Incongruent	pII	FEAR	HAPPY	FEAR	0.847	1	M16FA_8681	NIMH-ChEFS
620.216	1	3.5	Congruent	n/a	HAPPY	HAPPY	FEAR	0.759	0	F19HS_6297	NIMH-ChEFS
624.785	1	2.5	Congruent	n/a	FEAR	FEAR	HAPPY	0.805	0	F35FA_8465	NIMH-ChEFS
628.358	1	2	Incongruent	pCI	FEAR	HAPPY	HAPPY	0.892	0	M4FS_4935	NIMH-ChEFS
631.432	1	4	Incongruent	pII	HAPPY	FEAR	FEAR	1.133	0	F37HS_8954	NIMH-ChEFS
636.503	1	2.5	Congruent	n/a	FEAR	FEAR	HAPPY	0.832	0	F30FS_8546	NIMH-ChEFS
640.076	1	3.5	Congruent	n/a	HAPPY	HAPPY	FEAR	1.014	0	M9HS_6054	NIMH-ChEFS
644.648	1	2	Incongruent	pCI	FEAR	HAPPY	no_resp	-0.099	0	F31FA_7873	NIMH-ChEFS
647.689	1	3	Incongruent	pII	HAPPY	FEAR	FEAR	0.696	0	F4HA_3668	NIMH-ChEFS
651.761	1	2	Congruent	n/a	HAPPY	HAPPY	FEAR	0.964	0	M15HA_8321	NIMH-ChEFS
654.833	1	2.5	Incongruent	pCI	HAPPY	FEAR	FEAR	0.672	0	F3HS_3540	NIMH-ChEFS
658.4	1	3	Incongruent	pII	FEAR	HAPPY	HAPPY	0.86	0	M20FS_9236	NIMH-ChEFS
