onset	duration	interstimulus_interval	trial_type	trial_type_2	target_condition	distractor	response	response_time	correct	identifier	database
0.063	1	3.5	Congruent	n/a	FEAR	FEAR	FEAR	0.82	1	M9FS_6104	NIMH-ChEFS
4.656	1	4	Congruent	n/a	HAPPY	HAPPY	HAPPY	0.797	1	F13HA_5265	NIMH-ChEFS
9.744	1	2	Incongruent	pCI	HAPPY	FEAR	HAPPY	0.759	1	M4HA_4877	NIMH-ChEFS
12.848	1	2.5	Incongruent	pII	FEAR	HAPPY	FEAR	0.5	1	F7FS_4016	NIMH-ChEFS
16.43	1	3	Congruent	n/a	HAPPY	HAPPY	HAPPY	0.843	1	F30HS_8495	NIMH-ChEFS
20.479	1	4	Congruent	n/a	FEAR	FEAR	FEAR	0.444	1	M4FA_4941	NIMH-ChEFS
25.559	1	2	Incongruent	pCI	FEAR	HAPPY	FEAR	0.909	1	F32FA_8053	NIMH-ChEFS
28.637	1	3.5	Incongruent	pII	HAPPY	FEAR	HAPPY	0.791	1	M10HS_6767	NIMH-ChEFS
33.215	1	2.5	Congruent	n/a	HAPPY	HAPPY	HAPPY	0.713	1	F23HA_7156	NIMH-ChEFS
36.794	1	3	Congruent	n/a	FEAR	FEAR	FEAR	0.474	1	F13FS_5292	NIMH-ChEFS
40.873	1	4	Incongruent	pCI	HAPPY	FEAR	HAPPY	0.76	1	F4HS_3664	NIMH-ChEFS
45.952	1	3	Incongruent	pII	HAPPY	FEAR	HAPPY	0.746	1	M20HA_9192	NIMH-ChEFS
50.023	1	2.5	Congruent	n/a	FEAR	FEAR	FEAR	0.425	1	F18FA_6243	NIMH-ChEFS
53.602	1	3.5	Congruent	n/a	HAPPY	HAPPY	HAPPY	0.476	1	M18HS_8848	NIMH-ChEFS
58.186	1	2	Incongruent	pCI	FEAR	HAPPY	FEAR	0.527	1	M14FS_7958	NIMH-ChEFS
61.265	1	4	Incongruent	pII	HAPPY	FEAR	HAPPY	0.573	1	F39HA_9433	NIMH-ChEFS
66.338	1	2.5	Congruent	n/a	FEAR	FEAR	FEAR	0.665	1	M10_FA_6823	NIMH-ChEFS
69.917	1	3.5	Congruent	n/a	HAPPY	HAPPY	HAPPY	0.486	1	F12HS_5000	NIMH-ChEFS
74.497	1	2	Incongruent	pCI	FEAR	HAPPY	FEAR	0.586	1	M17FA_8799	NIMH-ChEFS
77.58	1	3	Incongruent	pII	FEAR	HAPPY	HAPPY	0.598	0	F2FS_3470	NIMH-ChEFS
81.663	1	2.5	Congruent	n/a	HAPPY	HAPPY	HAPPY	0.955	1	M14HA_7913	NIMH-ChEFS
85.245	1	2	Congruent	n/a	HAPPY	HAPPY	HAPPY	0.868	1	F7HA_3985	NIMH-ChEFS
88.328	1	4	Incongruent	pCI	FEAR	HAPPY	FEAR	0.925	1	M2FS_4636	NIMH-ChEFS
93.407	1	3	Incongruent	pII	HAPPY	FEAR	HAPPY	1.061	1	F18HS_6186	NIMH-ChEFS
97.486	1	3.5	Congruent	n/a	FEAR	FEAR	FEAR	0.552	1	F39FA_9489	NIMH-ChEFS
102.073	1	2	Congruent	n/a	HAPPY	HAPPY	HAPPY	0.655	1	M2HS_4493	NIMH-ChEFS
105.16	1	3	Incongruent	pCI	HAPPY	FEAR	HAPPY	0.578	1	F1HA_3424	NIMH-ChEFS
109.245	1	3.5	Incongruent	pII	FEAR	HAPPY	FEAR	0.688	1	M6FA__5449	NIMH-ChEFS
113.83	1	2.5	Congruent	n/a	FEAR	FEAR	FEAR	0.708	1	M19FS_9117	NIMH-ChEFS
117.41	1	4	Congruent	n/a	HAPPY	HAPPY	HAPPY	0.648	1	F35HS_8418	NIMH-ChEFS
122.489	1	3	Incongruent	pCI	FEAR	HAPPY	FEAR	0.609	1	F16FS_5978	NIMH-ChEFS
126.57	1	4	Incongruent	pII	FEAR	HAPPY	FEAR	0.733	1	M1FA_4336	NIMH-ChEFS
131.652	1	3.5	Congruent	n/a	HAPPY	HAPPY	HAPPY	1.041	1	M9HA_6057	NIMH-ChEFS
136.234	1	2.5	Congruent	n/a	FEAR	FEAR	FEAR	0.664	1	F4FA_3712	NIMH-ChEFS
139.815	1	2	Incongruent	pCI	HAPPY	FEAR	HAPPY	0.488	1	M15HS_8316	NIMH-ChEFS
142.902	1	2	Incongruent	pII	FEAR	HAPPY	FEAR	0.981	1	F21FS_6587	NIMH-ChEFS
145.983	1	4	Congruent	n/a	HAPPY	HAPPY	HAPPY	0.585	1	F19HA_6311	NIMH-ChEFS
151.066	1	3.5	Congruent	n/a	FEAR	FEAR	FEAR	0.602	1	M10_4FS_6817	NIMH-ChEFS
155.615	1	3	Incongruent	pCI	HAPPY	FEAR	HAPPY	0.573	1	F2HS_3448	NIMH-ChEFS
159.695	1	2.5	Incongruent	pII	HAPPY	FEAR	HAPPY	0.573	1	F10HA_4379	NIMH-ChEFS
163.276	1	4	Congruent	n/a	FEAR	FEAR	FEAR	0.742	1	M14FA_7960	NIMH-ChEFS
168.355	1	3	Congruent	n/a	FEAR	FEAR	FEAR	0.868	1	F30FA_8552	NIMH-ChEFS
172.436	1	3.5	Incongruent	pCI	HAPPY	FEAR	FEAR	0.842	0	M8HA_5828	NIMH-ChEFS
177.014	1	2	Incongruent	pII	FEAR	HAPPY	FEAR	0.954	1	F35FS_8451	NIMH-ChEFS
180.098	1	2.5	Congruent	n/a	HAPPY	HAPPY	HAPPY	0.54	1	M1HS_4301	NIMH-ChEFS
183.681	1	2.5	Congruent	n/a	FEAR	FEAR	FEAR	0.962	1	F37FA_9020	NIMH-ChEFS
187.262	1	3.5	Incongruent	pCI	FEAR	HAPPY	FEAR	0.841	1	M11FS_6953	NIMH-ChEFS
191.839	1	3	Incongruent	pII	HAPPY	FEAR	no_resp	-0.099	0	F34HA_8219	NIMH-ChEFS
195.887	1	4	Congruent	n/a	FEAR	FEAR	FEAR	0.811	1	F10FS_4426	NIMH-ChEFS
200.971	1	2	Congruent	n/a	HAPPY	HAPPY	HAPPY	1.077	1	M16HS_8633	NIMH-ChEFS
204.05	1	3	Incongruent	pCI	HAPPY	FEAR	HAPPY	1.073	1	M5HA_5140	NIMH-ChEFS
208.134	1	2	Incongruent	pII	FEAR	HAPPY	FEAR	0.554	1	F12FA_5062	NIMH-ChEFS
211.216	1	3.5	Congruent	n/a	HAPPY	HAPPY	HAPPY	0.632	1	F16HS_5924	NIMH-ChEFS
215.796	1	4	Congruent	n/a	FEAR	FEAR	FEAR	0.632	1	M2FA_4644	NIMH-ChEFS
220.878	1	2.5	Incongruent	pCI	FEAR	HAPPY	FEAR	0.595	1	M16FS_8676	NIMH-ChEFS
224.459	1	3.5	Incongruent	pII	HAPPY	FEAR	FEAR	0.754	0	F6HA_3882	NIMH-ChEFS
229.038	1	4	Congruent	n/a	FEAR	FEAR	FEAR	0.795	1	F19FS_6344	NIMH-ChEFS
234.114	1	2.5	Congruent	n/a	FEAR	FEAR	FEAR	0.819	1	M8FA_5885	NIMH-ChEFS
237.694	1	2	Incongruent	pCI	HAPPY	FEAR	HAPPY	0.789	1	F32HS_7996	NIMH-ChEFS
240.77	1	3	Incongruent	pII	HAPPY	FEAR	FEAR	0.848	0	M19HA_9066	NIMH-ChEFS
244.844	1	2.5	Congruent	n/a	FEAR	FEAR	FEAR	1.584	1	M3FS_4775	NIMH-ChEFS
248.424	1	4	Congruent	n/a	HAPPY	HAPPY	HAPPY	0.709	1	F3HA_3545	NIMH-ChEFS
253.503	1	3	Incongruent	pCI	FEAR	HAPPY	FEAR	1.49	1	M9FA_6121	NIMH-ChEFS
257.582	1	2	Incongruent	pII	FEAR	HAPPY	HAPPY	0.476	0	F14FA_5638	NIMH-ChEFS
260.663	1	3.5	Congruent	n/a	HAPPY	HAPPY	HAPPY	0.87	1	M6HS_5354	NIMH-ChEFS
265.246	1	2.5	Congruent	n/a	HAPPY	HAPPY	HAPPY	0.682	1	F21HS_6544	NIMH-ChEFS
268.828	1	2	Incongruent	pCI	FEAR	HAPPY	FEAR	0.92	1	M17FS_8783	NIMH-ChEFS
271.907	1	3	Incongruent	pII	HAPPY	FEAR	FEAR	0.706	0	F37HA_8965	NIMH-ChEFS
275.996	1	3.5	Congruent	n/a	HAPPY	HAPPY	HAPPY	0.842	1	M12HA_7030	NIMH-ChEFS
280.577	1	4	Congruent	n/a	FEAR	FEAR	FEAR	0.761	1	F31FS_7861	NIMH-ChEFS
285.656	1	2	Incongruent	pCI	FEAR	HAPPY	FEAR	0.982	1	F3FA_3605	NIMH-ChEFS
288.737	1	4	Incongruent	pII	HAPPY	FEAR	HAPPY	0.821	1	M3HS_4695	NIMH-ChEFS
293.817	1	3	Congruent	n/a	FEAR	FEAR	FEAR	0.606	1	M11FA_6969	NIMH-ChEFS
297.9	1	3.5	Congruent	n/a	HAPPY	HAPPY	HAPPY	0.428	1	F14HS_5590	NIMH-ChEFS
302.478	1	2.5	Incongruent	pCI	FEAR	HAPPY	FEAR	0.565	1	M12FS_7070	NIMH-ChEFS
306.058	1	3.5	Incongruent	pII	FEAR	HAPPY	FEAR	0.725	1	F6FS_3906	NIMH-ChEFS
310.637	1	2	Congruent	n/a	HAPPY	HAPPY	HAPPY	0.636	1	M7HA_5500	NIMH-ChEFS
313.713	1	4	Congruent	n/a	FEAR	FEAR	FEAR	0.85	1	F23FA_7228	NIMH-ChEFS
318.8	1	3	Incongruent	pCI	HAPPY	FEAR	HAPPY	0.673	1	F31HA_8583	NIMH-ChEFS
322.877	1	2.5	Incongruent	pII	HAPPY	FEAR	HAPPY	1.111	1	M11HS_6885	NIMH-ChEFS
326.459	1	2.5	Congruent	n/a	FEAR	FEAR	FEAR	0.664	1	M3FA_4789	NIMH-ChEFS
330.043	1	2	Congruent	n/a	FEAR	FEAR	FEAR	0.805	1	F34FS_8257	NIMH-ChEFS
333.12	1	3	Incongruent	pCI	HAPPY	FEAR	HAPPY	0.588	1	M17HS_8732	NIMH-ChEFS
337.2	1	3.5	Incongruent	pII	FEAR	HAPPY	FEAR	0.493	1	F7FA_4040	NIMH-ChEFS
341.778	1	4	Congruent	n/a	HAPPY	HAPPY	HAPPY	0.645	1	F10HS_4372	NIMH-ChEFS
346.857	1	2	Congruent	n/a	FEAR	FEAR	FEAR	0.576	1	M1FS_4325	NIMH-ChEFS
349.937	1	3.5	Incongruent	pCI	FEAR	HAPPY	FEAR	0.766	1	M6_1FA_5445	NIMH-ChEFS
354.515	1	4	Incongruent	pII	HAPPY	FEAR	HAPPY	0.518	1	F35HA_8422	NIMH-ChEFS
359.601	1	3	Congruent	n/a	HAPPY	HAPPY	HAPPY	0.797	1	M16HA_8638	NIMH-ChEFS
363.692	1	2.5	Congruent	n/a	FEAR	FEAR	FEAR	0.721	1	F12FS_5036	NIMH-ChEFS
367.273	1	2	Incongruent	pCI	HAPPY	FEAR	HAPPY	0.65	1	F1HS_3423	NIMH-ChEFS
370.364	1	3.5	Incongruent	pII	FEAR	HAPPY	FEAR	0.734	1	M7FA_5539	NIMH-ChEFS
374.944	1	3	Congruent	n/a	FEAR	FEAR	FEAR	0.749	1	F34FA_8267	NIMH-ChEFS
379.021	1	2.5	Congruent	n/a	HAPPY	HAPPY	HAPPY	0.567	1	M8HS_5817	NIMH-ChEFS
382.604	1	4	Incongruent	pCI	FEAR	HAPPY	FEAR	0.859	1	F23FS_7205	NIMH-ChEFS
387.684	1	2.5	Incongruent	pII	HAPPY	FEAR	HAPPY	0.779	1	M1HA_4302	NIMH-ChEFS
391.262	1	3	Congruent	n/a	FEAR	FEAR	FEAR	1.046	1	M5FS_5188	NIMH-ChEFS
395.34	1	2	Congruent	n/a	HAPPY	HAPPY	HAPPY	0.488	1	F18HA_6193	NIMH-ChEFS
398.419	1	4	Incongruent	pCI	FEAR	HAPPY	FEAR	0.514	1	M20FA_9277	NIMH-ChEFS
403.5	1	3.5	Incongruent	pII	FEAR	HAPPY	FEAR	0.468	1	F10FA_4434	NIMH-ChEFS
408.078	1	3.5	Congruent	n/a	HAPPY	HAPPY	HAPPY	0.29	1	F7HS_3986	NIMH-ChEFS
412.663	1	2.5	Congruent	n/a	HAPPY	HAPPY	HAPPY	0.565	1	M12HS_7022	NIMH-ChEFS
416.248	1	3	Incongruent	pCI	FEAR	HAPPY	FEAR	0.435	1	M7FS_5530	NIMH-ChEFS
420.325	1	2	Incongruent	pII	HAPPY	FEAR	HAPPY	0.823	1	F21HA_6550	NIMH-ChEFS
423.398	1	4	Congruent	n/a	HAPPY	HAPPY	HAPPY	0.81	1	M17HA_8742	NIMH-ChEFS
428.458	1	3	Congruent	n/a	FEAR	FEAR	FEAR	0.92	1	F39FS_9475	NIMH-ChEFS
432.535	1	3.5	Incongruent	pCI	HAPPY	FEAR	HAPPY	0.538	1	M11HA_6890	NIMH-ChEFS
437.089	1	4	Incongruent	pII	FEAR	HAPPY	FEAR	0.629	1	F19FA_6353	NIMH-ChEFS
442.172	1	2.5	Congruent	n/a	FEAR	FEAR	FEAR	0.961	1	M15FA_8374	NIMH-ChEFS
445.762	1	2	Congruent	n/a	HAPPY	HAPPY	HAPPY	0.581	1	F13HS_5255	NIMH-ChEFS
448.843	1	2.5	Incongruent	pCI	HAPPY	FEAR	HAPPY	0.615	1	M20HS_9191	NIMH-ChEFS
452.419	1	3	Incongruent	pII	FEAR	HAPPY	FEAR	0.844	1	M6FS_5422	NIMH-ChEFS
456.502	1	3.5	Congruent	n/a	HAPPY	HAPPY	HAPPY	0.571	1	F16HA_5934	NIMH-ChEFS
461.088	1	2	Congruent	n/a	FEAR	FEAR	FEAR	0.765	1	M18FA_8913	NIMH-ChEFS
464.163	1	4	Incongruent	pCI	HAPPY	FEAR	HAPPY	0.54	1	F39HS_9426	NIMH-ChEFS
469.245	1	4	Incongruent	pII	FEAR	HAPPY	FEAR	1.558	1	F3FS_3596	NIMH-ChEFS
474.322	1	3	Congruent	n/a	FEAR	FEAR	FEAR	0.85	1	M8FS_5869	NIMH-ChEFS
478.392	1	2	Congruent	n/a	HAPPY	HAPPY	HAPPY	0.535	1	M4HS_4862	NIMH-ChEFS
481.47	1	3.5	Incongruent	pCI	HAPPY	FEAR	HAPPY	0.593	1	F2HA_3451	NIMH-ChEFS
486.047	1	2.5	Incongruent	pII	HAPPY	FEAR	HAPPY	0.681	1	M10HA_6772	NIMH-ChEFS
489.623	1	4	Congruent	n/a	FEAR	FEAR	FEAR	0.495	1	F18FS_6229	NIMH-ChEFS
494.701	1	3.5	Congruent	n/a	HAPPY	HAPPY	HAPPY	0.642	1	F31HS_8581	NIMH-ChEFS
499.28	1	2	Incongruent	pCI	FEAR	HAPPY	FEAR	0.693	1	M12FA_7082	NIMH-ChEFS
502.356	1	3	Incongruent	pII	HAPPY	FEAR	HAPPY	0.917	1	F12HA_5004	NIMH-ChEFS
506.432	1	2.5	Congruent	n/a	FEAR	FEAR	FEAR	0.866	1	F6FA_3922	NIMH-ChEFS
510.016	1	2.5	Congruent	n/a	HAPPY	HAPPY	HAPPY	0.437	1	M5HS_5134	NIMH-ChEFS
513.592	1	2	Incongruent	pCI	HAPPY	FEAR	FEAR	0.796	0	M14HS_7912	NIMH-ChEFS
516.675	1	3	Incongruent	pII	FEAR	HAPPY	FEAR	1.138	1	F32FS_8041	NIMH-ChEFS
520.755	1	3.5	Congruent	n/a	FEAR	FEAR	FEAR	1.063	1	M19FA_9129	NIMH-ChEFS
525.333	1	4	Congruent	n/a	HAPPY	HAPPY	HAPPY	0.505	1	F34HS_8209	NIMH-ChEFS
530.415	1	4	Incongruent	pCI	HAPPY	FEAR	HAPPY	0.603	1	M18HA_8854	NIMH-ChEFS
535.494	1	2.5	Incongruent	pII	FEAR	HAPPY	FEAR	0.789	1	F16FA_5992	NIMH-ChEFS
539.07	1	2	Congruent	n/a	FEAR	FEAR	FEAR	0.903	1	F37FS_9007	NIMH-ChEFS
542.149	1	3	Congruent	n/a	HAPPY	HAPPY	HAPPY	0.739	1	M3HA_4707	NIMH-ChEFS
546.225	1	3.5	Incongruent	pCI	FEAR	HAPPY	FEAR	0.613	1	M15FS_8364	NIMH-ChEFS
550.773	1	4	Incongruent	pII	FEAR	HAPPY	FEAR	0.615	1	F13FA_5314	NIMH-ChEFS
555.856	1	3	Congruent	n/a	HAPPY	HAPPY	HAPPY	0.567	1	F14HA_5595	NIMH-ChEFS
559.935	1	2.5	Congruent	n/a	FEAR	FEAR	FEAR	0.848	1	M5FA_5198	NIMH-ChEFS
563.514	1	2	Incongruent	pCI	FEAR	HAPPY	HAPPY	0.699	0	F2FA_3491	NIMH-ChEFS
566.589	1	3.5	Incongruent	pII	HAPPY	FEAR	HAPPY	1.209	1	F23HS_7148	NIMH-ChEFS
571.169	1	2.5	Congruent	n/a	FEAR	FEAR	FEAR	0.694	1	M18FS_8888	NIMH-ChEFS
574.748	1	3.5	Congruent	n/a	HAPPY	HAPPY	HAPPY	0.68	1	F30HA_8500	NIMH-ChEFS
579.298	1	4	Incongruent	pCI	HAPPY	FEAR	HAPPY	0.69	1	M7HS_5497	NIMH-ChEFS
584.379	1	3	Incongruent	pII	FEAR	HAPPY	FEAR	1.574	1	F14FS_5632	NIMH-ChEFS
588.46	1	2	Congruent	n/a	HAPPY	HAPPY	HAPPY	0.973	1	M2HA_4506	NIMH-ChEFS
591.53	1	4	Congruent	n/a	FEAR	FEAR	FEAR	0.573	1	F21FA_6608	NIMH-ChEFS
596.61	1	3	Incongruent	pCI	HAPPY	FEAR	HAPPY	0.573	1	F6HS_3875	NIMH-ChEFS
600.687	1	3.5	Incongruent	pII	HAPPY	FEAR	HAPPY	0.626	1	M19HS_9059	NIMH-ChEFS
605.27	1	2.5	Congruent	n/a	FEAR	FEAR	FEAR	0.593	1	F4FS_3704	NIMH-ChEFS
608.857	1	2	Congruent	n/a	HAPPY	HAPPY	HAPPY	0.681	1	F32HA_7998	NIMH-ChEFS
611.944	1	2.5	Incongruent	pCI	HAPPY	FEAR	HAPPY	0.644	1	M6HA_5360	NIMH-ChEFS
615.533	1	2	Incongruent	pII	FEAR	HAPPY	FEAR	0.495	1	M16FA_8681	NIMH-ChEFS
618.624	1	4	Congruent	n/a	HAPPY	HAPPY	HAPPY	0.549	1	F19HS_6297	NIMH-ChEFS
623.708	1	3	Congruent	n/a	FEAR	FEAR	FEAR	1.24	1	F35FA_8465	NIMH-ChEFS
627.799	1	3.5	Incongruent	pCI	FEAR	HAPPY	FEAR	0.919	1	M4FS_4935	NIMH-ChEFS
632.385	1	2	Incongruent	pII	HAPPY	FEAR	HAPPY	0.843	1	F37HS_8954	NIMH-ChEFS
635.463	1	2.5	Congruent	n/a	FEAR	FEAR	FEAR	0.82	1	F30FS_8546	NIMH-ChEFS
639.043	1	3.5	Congruent	n/a	HAPPY	HAPPY	HAPPY	0.65	1	M9HS_6054	NIMH-ChEFS
643.625	1	3	Incongruent	pCI	FEAR	HAPPY	FEAR	1.268	1	F31FA_7873	NIMH-ChEFS
647.707	1	4	Incongruent	pII	HAPPY	FEAR	HAPPY	0.591	1	F4HA_3668	NIMH-ChEFS
652.787	1	2	Congruent	n/a	HAPPY	HAPPY	FEAR	1.186	0	M15HA_8321	NIMH-ChEFS
655.863	1	3.5	Incongruent	pCI	HAPPY	FEAR	HAPPY	0.75	1	F3HS_3540	NIMH-ChEFS
660.447	1	4	Incongruent	pII	FEAR	HAPPY	FEAR	0.821	1	M20FS_9236	NIMH-ChEFS
