onset	duration	interstimulus_interval	trial_type	trial_type_2	target_condition	distractor	response	response_time	correct	identifier	database
0.054	1	3.5	Congruent	n/a	FEAR	FEAR	FEAR	0.748	1	M9FS_6104	NIMH-ChEFS
4.635	1	2	Congruent	n/a	HAPPY	HAPPY	HAPPY	0.604	1	F13HA_5265	NIMH-ChEFS
7.713	1	2.5	Incongruent	pCI	HAPPY	FEAR	HAPPY	0.794	1	M4HA_4877	NIMH-ChEFS
11.275	1	3	Incongruent	pII	FEAR	HAPPY	FEAR	0.707	1	F7FS_4016	NIMH-ChEFS
15.351	1	4	Congruent	n/a	HAPPY	HAPPY	HAPPY	0.676	1	F30HS_8495	NIMH-ChEFS
20.423	1	3	Congruent	n/a	FEAR	FEAR	FEAR	0.817	1	M4FA_4941	NIMH-ChEFS
24.489	1	4	Incongruent	pCI	FEAR	HAPPY	FEAR	0.638	1	F32FA_8053	NIMH-ChEFS
29.556	1	3.5	Incongruent	pII	HAPPY	FEAR	HAPPY	0.648	1	M10HS_6767	NIMH-ChEFS
34.097	1	2.5	Congruent	n/a	HAPPY	HAPPY	HAPPY	0.763	1	F23HA_7156	NIMH-ChEFS
37.666	1	2	Congruent	n/a	FEAR	FEAR	FEAR	0.97	1	F13FS_5292	NIMH-ChEFS
40.734	1	2	Incongruent	pCI	HAPPY	FEAR	FEAR	0.811	0	F4HS_3664	NIMH-ChEFS
43.8	1	3	Incongruent	pII	HAPPY	FEAR	HAPPY	0.886	1	M20HA_9192	NIMH-ChEFS
47.866	1	4	Congruent	n/a	FEAR	FEAR	FEAR	0.701	1	F18FA_6243	NIMH-ChEFS
52.931	1	2.5	Congruent	n/a	HAPPY	HAPPY	HAPPY	0.715	1	M18HS_8848	NIMH-ChEFS
56.5	1	3.5	Incongruent	pCI	FEAR	HAPPY	FEAR	0.929	1	M14FS_7958	NIMH-ChEFS
61.044	1	3	Incongruent	pII	HAPPY	FEAR	HAPPY	0.625	1	F39HA_9433	NIMH-ChEFS
65.09	1	4	Congruent	n/a	FEAR	FEAR	FEAR	0.7	1	M10_FA_6823	NIMH-ChEFS
70.137	1	2	Congruent	n/a	HAPPY	HAPPY	HAPPY	0.751	1	F12HS_5000	NIMH-ChEFS
73.185	1	2.5	Incongruent	pCI	FEAR	HAPPY	FEAR	1.441	1	M17FA_8799	NIMH-ChEFS
76.752	1	3.5	Incongruent	pII	FEAR	HAPPY	FEAR	0.759	1	F2FS_3470	NIMH-ChEFS
81.326	1	2	Congruent	n/a	HAPPY	HAPPY	HAPPY	0.579	1	M14HA_7913	NIMH-ChEFS
84.372	1	3	Congruent	n/a	HAPPY	HAPPY	HAPPY	0.895	1	F7HA_3985	NIMH-ChEFS
88.443	1	2.5	Incongruent	pCI	FEAR	HAPPY	FEAR	0.838	1	M2FS_4636	NIMH-ChEFS
92.008	1	4	Incongruent	pII	HAPPY	FEAR	HAPPY	0.733	1	F18HS_6186	NIMH-ChEFS
97.048	1	3.5	Congruent	n/a	FEAR	FEAR	FEAR	0.878	1	F39FA_9489	NIMH-ChEFS
101.618	1	4	Congruent	n/a	HAPPY	HAPPY	HAPPY	0.541	1	M2HS_4493	NIMH-ChEFS
106.689	1	2	Incongruent	pCI	HAPPY	FEAR	HAPPY	0.983	1	F1HA_3424	NIMH-ChEFS
109.758	1	2.5	Incongruent	pII	FEAR	HAPPY	FEAR	0.682	1	M6FA__5449	NIMH-ChEFS
113.329	1	3.5	Congruent	n/a	FEAR	FEAR	FEAR	0.686	1	M19FS_9117	NIMH-ChEFS
117.897	1	3	Congruent	n/a	HAPPY	HAPPY	HAPPY	0.777	1	F35HS_8418	NIMH-ChEFS
121.944	1	3.5	Incongruent	pCI	FEAR	HAPPY	FEAR	0.832	1	F16FS_5978	NIMH-ChEFS
126.516	1	4	Incongruent	pII	FEAR	HAPPY	FEAR	0.883	1	M1FA_4336	NIMH-ChEFS
131.583	1	2.5	Congruent	n/a	HAPPY	HAPPY	HAPPY	0.729	1	M9HA_6057	NIMH-ChEFS
135.128	1	2	Congruent	n/a	FEAR	FEAR	FEAR	0.621	1	F4FA_3712	NIMH-ChEFS
138.197	1	3	Incongruent	pCI	HAPPY	FEAR	HAPPY	0.817	1	M15HS_8316	NIMH-ChEFS
142.243	1	2.5	Incongruent	pII	FEAR	HAPPY	FEAR	0.905	1	F21FS_6587	NIMH-ChEFS
145.813	1	3.5	Congruent	n/a	HAPPY	HAPPY	HAPPY	1.303	1	F19HA_6311	NIMH-ChEFS
150.384	1	2	Congruent	n/a	FEAR	FEAR	FEAR	0.608	1	M10_4FS_6817	NIMH-ChEFS
153.429	1	4	Incongruent	pCI	HAPPY	FEAR	HAPPY	0.779	1	F2HS_3448	NIMH-ChEFS
158.499	1	3	Incongruent	pII	HAPPY	FEAR	HAPPY	0.526	1	F10HA_4379	NIMH-ChEFS
162.568	1	2	Congruent	n/a	FEAR	FEAR	FEAR	0.396	1	M14FA_7960	NIMH-ChEFS
165.635	1	4	Congruent	n/a	FEAR	FEAR	FEAR	0.705	1	F30FA_8552	NIMH-ChEFS
170.68	1	3.5	Incongruent	pCI	HAPPY	FEAR	HAPPY	0.484	1	M8HA_5828	NIMH-ChEFS
175.225	1	3	Incongruent	pII	FEAR	HAPPY	HAPPY	0.905	0	F35FS_8451	NIMH-ChEFS
179.273	1	2.5	Congruent	n/a	HAPPY	HAPPY	HAPPY	1.32	1	M1HS_4301	NIMH-ChEFS
182.817	1	3	Congruent	n/a	FEAR	FEAR	FEAR	0.65	1	F37FA_9020	NIMH-ChEFS
186.888	1	2	Incongruent	pCI	FEAR	HAPPY	FEAR	0.998	1	M11FS_6953	NIMH-ChEFS
189.954	1	3.5	Incongruent	pII	HAPPY	FEAR	HAPPY	0.616	1	F34HA_8219	NIMH-ChEFS
194.5	1	4	Congruent	n/a	FEAR	FEAR	FEAR	0.648	1	F10FS_4426	NIMH-ChEFS
199.574	1	2.5	Congruent	n/a	HAPPY	HAPPY	HAPPY	0.643	1	M16HS_8633	NIMH-ChEFS
203.142	1	2	Incongruent	pCI	HAPPY	FEAR	HAPPY	0.726	1	M5HA_5140	NIMH-ChEFS
206.198	1	4	Incongruent	pII	FEAR	HAPPY	FEAR	0.926	1	F12FA_5062	NIMH-ChEFS
211.246	1	3.5	Congruent	n/a	HAPPY	HAPPY	HAPPY	0.844	1	F16HS_5924	NIMH-ChEFS
215.813	1	3	Congruent	n/a	FEAR	FEAR	FEAR	0.644	1	M2FA_4644	NIMH-ChEFS
219.882	1	2.5	Incongruent	pCI	FEAR	HAPPY	FEAR	1.071	1	M16FS_8676	NIMH-ChEFS
223.428	1	3.5	Incongruent	pII	HAPPY	FEAR	HAPPY	0.827	1	F6HA_3882	NIMH-ChEFS
227.997	1	2	Congruent	n/a	FEAR	FEAR	FEAR	0.512	1	F19FS_6344	NIMH-ChEFS
231.063	1	2.5	Congruent	n/a	FEAR	FEAR	FEAR	0.588	1	M8FA_5885	NIMH-ChEFS
234.611	1	4	Incongruent	pCI	HAPPY	FEAR	HAPPY	0.428	1	F32HS_7996	NIMH-ChEFS
239.679	1	3	Incongruent	pII	HAPPY	FEAR	HAPPY	0.654	1	M19HA_9066	NIMH-ChEFS
243.724	1	4	Congruent	n/a	FEAR	FEAR	FEAR	0.725	1	M3FS_4775	NIMH-ChEFS
248.791	1	2	Congruent	n/a	HAPPY	HAPPY	HAPPY	0.733	1	F3HA_3545	NIMH-ChEFS
251.859	1	2.5	Incongruent	pCI	FEAR	HAPPY	FEAR	0.898	1	M9FA_6121	NIMH-ChEFS
255.405	1	3.5	Incongruent	pII	FEAR	HAPPY	FEAR	0.8	1	F14FA_5638	NIMH-ChEFS
259.951	1	3	Congruent	n/a	HAPPY	HAPPY	HAPPY	0.889	1	M6HS_5354	NIMH-ChEFS
264.022	1	2	Congruent	n/a	HAPPY	HAPPY	HAPPY	0.711	1	F21HS_6544	NIMH-ChEFS
267.093	1	3.5	Incongruent	pCI	FEAR	HAPPY	FEAR	1.034	1	M17FS_8783	NIMH-ChEFS
271.64	1	3	Incongruent	pII	HAPPY	FEAR	HAPPY	0.526	1	F37HA_8965	NIMH-ChEFS
275.688	1	2.5	Congruent	n/a	HAPPY	HAPPY	HAPPY	1.01	1	M12HA_7030	NIMH-ChEFS
279.231	1	4	Congruent	n/a	FEAR	FEAR	FEAR	0.769	1	F31FS_7861	NIMH-ChEFS
284.278	1	4	Incongruent	pCI	FEAR	HAPPY	FEAR	0.868	1	F3FA_3605	NIMH-ChEFS
289.328	1	3	Incongruent	pII	HAPPY	FEAR	HAPPY	0.942	1	M3HS_4695	NIMH-ChEFS
293.375	1	3.5	Congruent	n/a	FEAR	FEAR	FEAR	0.792	1	M11FA_6969	NIMH-ChEFS
297.944	1	2.5	Congruent	n/a	HAPPY	HAPPY	HAPPY	1.091	1	F14HS_5590	NIMH-ChEFS
301.49	1	2	Incongruent	pCI	FEAR	HAPPY	FEAR	0.508	1	M12FS_7070	NIMH-ChEFS
304.56	1	2	Incongruent	pII	FEAR	HAPPY	FEAR	0.857	1	F6FS_3906	NIMH-ChEFS
307.631	1	3	Congruent	n/a	HAPPY	HAPPY	HAPPY	0.776	1	M7HA_5500	NIMH-ChEFS
311.677	1	2.5	Congruent	n/a	FEAR	FEAR	FEAR	0.688	1	F23FA_7228	NIMH-ChEFS
315.224	1	4	Incongruent	pCI	HAPPY	FEAR	FEAR	1.604	0	F31HA_8583	NIMH-ChEFS
320.267	1	3.5	Incongruent	pII	HAPPY	FEAR	HAPPY	0.755	1	M11HS_6885	NIMH-ChEFS
324.812	1	3.5	Congruent	n/a	FEAR	FEAR	FEAR	0.599	1	M3FA_4789	NIMH-ChEFS
329.381	1	2	Congruent	n/a	FEAR	FEAR	FEAR	0.68	1	F34FS_8257	NIMH-ChEFS
332.427	1	2.5	Incongruent	pCI	HAPPY	FEAR	HAPPY	1.147	1	M17HS_8732	NIMH-ChEFS
335.997	1	3	Incongruent	pII	FEAR	HAPPY	FEAR	0.903	1	F7FA_4040	NIMH-ChEFS
340.041	1	4	Congruent	n/a	HAPPY	HAPPY	HAPPY	0.636	1	F10HS_4372	NIMH-ChEFS
345.084	1	2	Congruent	n/a	FEAR	FEAR	FEAR	0.756	1	M1FS_4325	NIMH-ChEFS
348.155	1	4	Incongruent	pCI	FEAR	HAPPY	FEAR	0.741	1	M6_1FA_5445	NIMH-ChEFS
353.222	1	3.5	Incongruent	pII	HAPPY	FEAR	HAPPY	0.54	1	F35HA_8422	NIMH-ChEFS
357.793	1	2.5	Congruent	n/a	HAPPY	HAPPY	HAPPY	0.429	1	M16HA_8638	NIMH-ChEFS
361.338	1	3	Congruent	n/a	FEAR	FEAR	FEAR	0.861	1	F12FS_5036	NIMH-ChEFS
365.386	1	3.5	Incongruent	pCI	HAPPY	FEAR	HAPPY	0.723	1	F1HS_3423	NIMH-ChEFS
369.956	1	3	Incongruent	pII	FEAR	HAPPY	FEAR	0.654	1	M7FA_5539	NIMH-ChEFS
374.026	1	2	Congruent	n/a	FEAR	FEAR	FEAR	0.676	1	F34FA_8267	NIMH-ChEFS
377.097	1	2.5	Congruent	n/a	HAPPY	HAPPY	HAPPY	0.726	1	M8HS_5817	NIMH-ChEFS
380.668	1	4	Incongruent	pCI	FEAR	HAPPY	FEAR	0.806	1	F23FS_7205	NIMH-ChEFS
385.71	1	3.5	Incongruent	pII	HAPPY	FEAR	HAPPY	0.943	1	M1HA_4302	NIMH-ChEFS
390.254	1	4	Congruent	n/a	FEAR	FEAR	FEAR	0.71	1	M5FS_5188	NIMH-ChEFS
395.301	1	3	Congruent	n/a	HAPPY	HAPPY	HAPPY	0.852	1	F18HA_6193	NIMH-ChEFS
399.347	1	2.5	Incongruent	pCI	FEAR	HAPPY	FEAR	1.021	1	M20FA_9277	NIMH-ChEFS
402.919	1	2	Incongruent	pII	FEAR	HAPPY	FEAR	0.643	1	F10FA_4434	NIMH-ChEFS
405.992	1	3.5	Congruent	n/a	HAPPY	HAPPY	HAPPY	0.603	1	F7HS_3986	NIMH-ChEFS
410.539	1	4	Congruent	n/a	HAPPY	HAPPY	HAPPY	0.718	1	M12HS_7022	NIMH-ChEFS
415.588	1	2.5	Incongruent	pCI	FEAR	HAPPY	FEAR	1.316	1	M7FS_5530	NIMH-ChEFS
419.158	1	3	Incongruent	pII	HAPPY	FEAR	HAPPY	0.602	1	F21HA_6550	NIMH-ChEFS
423.201	1	2	Congruent	n/a	HAPPY	HAPPY	HAPPY	0.694	1	M17HA_8742	NIMH-ChEFS
426.269	1	3.5	Congruent	n/a	FEAR	FEAR	FEAR	1.046	1	F39FS_9475	NIMH-ChEFS
430.815	1	2	Incongruent	pCI	HAPPY	FEAR	HAPPY	0.679	1	M11HA_6890	NIMH-ChEFS
433.886	1	2.5	Incongruent	pII	FEAR	HAPPY	FEAR	0.823	1	F19FA_6353	NIMH-ChEFS
437.432	1	3	Congruent	n/a	FEAR	FEAR	FEAR	0.666	1	M15FA_8374	NIMH-ChEFS
441.479	1	4	Congruent	n/a	HAPPY	HAPPY	HAPPY	0.794	1	F13HS_5255	NIMH-ChEFS
446.527	1	2	Incongruent	pCI	HAPPY	FEAR	HAPPY	0.445	1	M20HS_9191	NIMH-ChEFS
449.601	1	2.5	Incongruent	pII	FEAR	HAPPY	FEAR	0.716	1	M6FS_5422	NIMH-ChEFS
453.169	1	3	Congruent	n/a	HAPPY	HAPPY	HAPPY	0.561	1	F16HA_5934	NIMH-ChEFS
457.237	1	3.5	Congruent	n/a	FEAR	FEAR	FEAR	0.408	1	M18FA_8913	NIMH-ChEFS
461.807	1	4	Incongruent	pCI	HAPPY	FEAR	HAPPY	0.738	1	F39HS_9426	NIMH-ChEFS
466.878	1	4	Incongruent	pII	FEAR	HAPPY	FEAR	0.731	1	F3FS_3596	NIMH-ChEFS
471.924	1	2.5	Congruent	n/a	FEAR	FEAR	FEAR	0.585	1	M8FS_5869	NIMH-ChEFS
475.473	1	2	Congruent	n/a	HAPPY	HAPPY	HAPPY	0.366	1	M4HS_4862	NIMH-ChEFS
478.52	1	3	Incongruent	pCI	HAPPY	FEAR	HAPPY	0.69	1	F2HA_3451	NIMH-ChEFS
482.592	1	3.5	Incongruent	pII	HAPPY	FEAR	HAPPY	1.173	1	M10HA_6772	NIMH-ChEFS
487.162	1	3	Congruent	n/a	FEAR	FEAR	FEAR	0.618	1	F18FS_6229	NIMH-ChEFS
491.207	1	3.5	Congruent	n/a	HAPPY	HAPPY	HAPPY	0.571	1	F31HS_8581	NIMH-ChEFS
495.754	1	4	Incongruent	pCI	FEAR	HAPPY	FEAR	1.137	1	M12FA_7082	NIMH-ChEFS
500.801	1	2.5	Incongruent	pII	HAPPY	FEAR	HAPPY	0.928	1	F12HA_5004	NIMH-ChEFS
504.346	1	2	Congruent	n/a	FEAR	FEAR	FEAR	1.077	1	F6FA_3922	NIMH-ChEFS
507.392	1	3.5	Congruent	n/a	HAPPY	HAPPY	HAPPY	0.815	1	M5HS_5134	NIMH-ChEFS
511.94	1	2	Incongruent	pCI	HAPPY	FEAR	HAPPY	1.081	1	M14HS_7912	NIMH-ChEFS
514.99	1	3	Incongruent	pII	FEAR	HAPPY	FEAR	0.653	1	F32FS_8041	NIMH-ChEFS
519.037	1	4	Congruent	n/a	FEAR	FEAR	FEAR	0.604	1	M19FA_9129	NIMH-ChEFS
524.109	1	2.5	Congruent	n/a	HAPPY	HAPPY	HAPPY	0.474	1	F34HS_8209	NIMH-ChEFS
527.68	1	3	Incongruent	pCI	HAPPY	FEAR	HAPPY	1.486	1	M18HA_8854	NIMH-ChEFS
531.751	1	2	Incongruent	pII	FEAR	HAPPY	HAPPY	1.158	0	F16FA_5992	NIMH-ChEFS
534.82	1	2.5	Congruent	n/a	FEAR	FEAR	FEAR	0.621	1	F37FS_9007	NIMH-ChEFS
538.391	1	3.5	Congruent	n/a	HAPPY	HAPPY	HAPPY	0.688	1	M3HA_4707	NIMH-ChEFS
542.961	1	4	Incongruent	pCI	FEAR	HAPPY	FEAR	0.961	1	M15FS_8364	NIMH-ChEFS
548.033	1	2	Incongruent	pII	FEAR	HAPPY	FEAR	0.93	1	F13FA_5314	NIMH-ChEFS
551.101	1	3.5	Congruent	n/a	HAPPY	HAPPY	HAPPY	0.704	1	F14HA_5595	NIMH-ChEFS
555.649	1	2.5	Congruent	n/a	FEAR	FEAR	FEAR	0.589	1	M5FA_5198	NIMH-ChEFS
559.207	1	3	Incongruent	pCI	FEAR	HAPPY	FEAR	1.012	1	F2FA_3491	NIMH-ChEFS
563.276	1	4	Incongruent	pII	HAPPY	FEAR	HAPPY	1.081	1	F23HS_7148	NIMH-ChEFS
568.346	1	3	Congruent	n/a	FEAR	FEAR	FEAR	0.66	1	M18FS_8888	NIMH-ChEFS
572.413	1	4	Congruent	n/a	HAPPY	HAPPY	HAPPY	0.535	1	F30HA_8500	NIMH-ChEFS
577.456	1	3.5	Incongruent	pCI	HAPPY	FEAR	HAPPY	0.739	1	M7HS_5497	NIMH-ChEFS
582.027	1	2.5	Incongruent	pII	FEAR	HAPPY	FEAR	0.686	1	F14FS_5632	NIMH-ChEFS
585.574	1	2	Congruent	n/a	HAPPY	HAPPY	HAPPY	0.501	1	M2HA_4506	NIMH-ChEFS
588.62	1	4	Congruent	n/a	FEAR	FEAR	FEAR	0.752	1	F21FA_6608	NIMH-ChEFS
593.69	1	2.5	Incongruent	pCI	HAPPY	FEAR	HAPPY	0.915	1	F6HS_3875	NIMH-ChEFS
597.26	1	3.5	Incongruent	pII	HAPPY	FEAR	HAPPY	0.842	1	M19HS_9059	NIMH-ChEFS
601.806	1	2	Congruent	n/a	FEAR	FEAR	FEAR	0.954	1	F4FS_3704	NIMH-ChEFS
604.877	1	3	Congruent	n/a	HAPPY	HAPPY	HAPPY	0.699	1	F32HA_7998	NIMH-ChEFS
608.943	1	2	Incongruent	pCI	HAPPY	FEAR	FEAR	1.495	0	M6HA_5360	NIMH-ChEFS
612.01	1	2.5	Incongruent	pII	FEAR	HAPPY	FEAR	1.284	1	M16FA_8681	NIMH-ChEFS
615.558	1	3	Congruent	n/a	HAPPY	HAPPY	HAPPY	0.599	1	F19HS_6297	NIMH-ChEFS
619.603	1	4	Congruent	n/a	FEAR	FEAR	FEAR	1.565	1	F35FA_8465	NIMH-ChEFS
624.651	1	3.5	Incongruent	pCI	FEAR	HAPPY	FEAR	1.298	1	M4FS_4935	NIMH-ChEFS
629.218	1	3.5	Incongruent	pII	HAPPY	FEAR	HAPPY	0.55	1	F37HS_8954	NIMH-ChEFS
633.764	1	4	Congruent	n/a	FEAR	FEAR	FEAR	0.626	1	F30FS_8546	NIMH-ChEFS
638.833	1	3	Congruent	n/a	HAPPY	HAPPY	HAPPY	0.474	1	M9HS_6054	NIMH-ChEFS
642.901	1	2.5	Incongruent	pCI	FEAR	HAPPY	FEAR	0.764	1	F31FA_7873	NIMH-ChEFS
646.47	1	2	Incongruent	pII	HAPPY	FEAR	HAPPY	0.914	1	F4HA_3668	NIMH-ChEFS
649.512	1	4	Congruent	n/a	HAPPY	HAPPY	HAPPY	0.587	1	M15HA_8321	NIMH-ChEFS
654.556	1	2	Incongruent	pCI	HAPPY	FEAR	HAPPY	0.493	1	F3HS_3540	NIMH-ChEFS
657.604	1	2.5	Incongruent	pII	FEAR	HAPPY	FEAR	0.591	1	M20FS_9236	NIMH-ChEFS
