onset	duration	interstimulus_interval	trial_type	trial_type_2	target_condition	distractor	response	response_time	correct	identifier	database
0.087	1	3.5	Congruent	n/a	FEAR	FEAR	FEAR	0.789	1	M9FS_6104	NIMH-ChEFS
4.682	1	4	Congruent	n/a	HAPPY	HAPPY	HAPPY	0.608	1	F13HA_5265	NIMH-ChEFS
9.742	1	2	Incongruent	pCI	HAPPY	FEAR	HAPPY	0.877	1	M4HA_4877	NIMH-ChEFS
12.804	1	2.5	Incongruent	pII	FEAR	HAPPY	FEAR	0.778	1	F7FS_4016	NIMH-ChEFS
16.356	1	3	Congruent	n/a	HAPPY	HAPPY	HAPPY	0.488	1	F30HS_8495	NIMH-ChEFS
20.407	1	4	Congruent	n/a	FEAR	FEAR	FEAR	0.586	1	M4FA_4941	NIMH-ChEFS
25.487	1	2	Incongruent	pCI	FEAR	HAPPY	FEAR	0.714	1	F32FA_8053	NIMH-ChEFS
28.539	1	3.5	Incongruent	pII	HAPPY	FEAR	HAPPY	0.853	1	M10HS_6767	NIMH-ChEFS
33.094	1	2.5	Congruent	n/a	HAPPY	HAPPY	HAPPY	0.657	1	F23HA_7156	NIMH-ChEFS
36.641	1	3	Congruent	n/a	FEAR	FEAR	FEAR	0.604	1	F13FS_5292	NIMH-ChEFS
40.692	1	4	Incongruent	pCI	HAPPY	FEAR	HAPPY	0.619	1	F4HS_3664	NIMH-ChEFS
45.749	1	3	Incongruent	pII	HAPPY	FEAR	FEAR	0.823	0	M20HA_9192	NIMH-ChEFS
49.829	1	2.5	Congruent	n/a	FEAR	FEAR	FEAR	0.827	1	F18FA_6243	NIMH-ChEFS
53.38	1	3.5	Congruent	n/a	HAPPY	HAPPY	HAPPY	0.58	1	M18HS_8848	NIMH-ChEFS
57.938	1	2	Incongruent	pCI	FEAR	HAPPY	FEAR	0.787	1	M14FS_7958	NIMH-ChEFS
60.991	1	4	Incongruent	pII	HAPPY	FEAR	HAPPY	0.604	1	F39HA_9433	NIMH-ChEFS
66.042	1	2.5	Congruent	n/a	FEAR	FEAR	FEAR	0.954	1	M10_FA_6823	NIMH-ChEFS
69.594	1	3.5	Congruent	n/a	HAPPY	HAPPY	HAPPY	0.512	1	F12HS_5000	NIMH-ChEFS
74.149	1	2	Incongruent	pCI	FEAR	HAPPY	FEAR	0.836	1	M17FA_8799	NIMH-ChEFS
77.204	1	3	Incongruent	pII	FEAR	HAPPY	FEAR	0.766	1	F2FS_3470	NIMH-ChEFS
81.262	1	2.5	Congruent	n/a	HAPPY	HAPPY	HAPPY	0.512	1	M14HA_7913	NIMH-ChEFS
84.819	1	2	Congruent	n/a	HAPPY	HAPPY	HAPPY	0.731	1	F7HA_3985	NIMH-ChEFS
87.88	1	4	Incongruent	pCI	FEAR	HAPPY	FEAR	0.799	1	M2FS_4636	NIMH-ChEFS
92.931	1	3	Incongruent	pII	HAPPY	FEAR	HAPPY	0.705	1	F18HS_6186	NIMH-ChEFS
96.984	1	3.5	Congruent	n/a	FEAR	FEAR	FEAR	0.653	1	F39FA_9489	NIMH-ChEFS
101.54	1	2	Congruent	n/a	HAPPY	HAPPY	HAPPY	0.649	1	M2HS_4493	NIMH-ChEFS
104.593	1	3	Incongruent	pCI	HAPPY	FEAR	HAPPY	1.044	1	F1HA_3424	NIMH-ChEFS
108.646	1	3.5	Incongruent	pII	FEAR	HAPPY	FEAR	1.071	1	M6FA__5449	NIMH-ChEFS
113.198	1	2.5	Congruent	n/a	FEAR	FEAR	FEAR	0.781	1	M19FS_9117	NIMH-ChEFS
116.752	1	4	Congruent	n/a	HAPPY	HAPPY	HAPPY	0.466	1	F35HS_8418	NIMH-ChEFS
121.805	1	3	Incongruent	pCI	FEAR	HAPPY	FEAR	0.899	1	F16FS_5978	NIMH-ChEFS
125.862	1	4	Incongruent	pII	FEAR	HAPPY	FEAR	0.998	1	M1FA_4336	NIMH-ChEFS
130.915	1	3.5	Congruent	n/a	HAPPY	HAPPY	HAPPY	1.175	1	M9HA_6057	NIMH-ChEFS
135.494	1	2.5	Congruent	n/a	FEAR	FEAR	FEAR	0.777	1	F4FA_3712	NIMH-ChEFS
139.048	1	2	Incongruent	pCI	HAPPY	FEAR	HAPPY	0.826	1	M15HS_8316	NIMH-ChEFS
142.1	1	2	Incongruent	pII	FEAR	HAPPY	FEAR	0.885	1	F21FS_6587	NIMH-ChEFS
145.154	1	4	Congruent	n/a	HAPPY	HAPPY	HAPPY	1.006	1	F19HA_6311	NIMH-ChEFS
150.206	1	3.5	Congruent	n/a	FEAR	FEAR	FEAR	0.66	1	M10_4FS_6817	NIMH-ChEFS
154.782	1	3	Incongruent	pCI	HAPPY	FEAR	HAPPY	0.67	1	F2HS_3448	NIMH-ChEFS
158.833	1	2.5	Incongruent	pII	HAPPY	FEAR	HAPPY	0.863	1	F10HA_4379	NIMH-ChEFS
162.409	1	4	Congruent	n/a	FEAR	FEAR	FEAR	0.813	1	M14FA_7960	NIMH-ChEFS
167.458	1	3	Congruent	n/a	FEAR	FEAR	FEAR	0.863	1	F30FA_8552	NIMH-ChEFS
171.51	1	3.5	Incongruent	pCI	HAPPY	FEAR	HAPPY	0.754	1	M8HA_5828	NIMH-ChEFS
176.068	1	2	Incongruent	pII	FEAR	HAPPY	FEAR	0.973	1	F35FS_8451	NIMH-ChEFS
179.125	1	2.5	Congruent	n/a	HAPPY	HAPPY	HAPPY	0.644	1	M1HS_4301	NIMH-ChEFS
182.682	1	2.5	Congruent	n/a	FEAR	FEAR	HAPPY	0.701	0	F37FA_9020	NIMH-ChEFS
186.235	1	3.5	Incongruent	pCI	FEAR	HAPPY	FEAR	1.024	1	M11FS_6953	NIMH-ChEFS
190.783	1	3	Incongruent	pII	HAPPY	FEAR	HAPPY	0.665	1	F34HA_8219	NIMH-ChEFS
194.859	1	4	Congruent	n/a	FEAR	FEAR	FEAR	0.841	1	F10FS_4426	NIMH-ChEFS
199.913	1	2	Congruent	n/a	HAPPY	HAPPY	no_resp	-0.099	0	M16HS_8633	NIMH-ChEFS
202.962	1	3	Incongruent	pCI	HAPPY	FEAR	HAPPY	1.041	1	M5HA_5140	NIMH-ChEFS
207.011	1	2	Incongruent	pII	FEAR	HAPPY	FEAR	0.844	1	F12FA_5062	NIMH-ChEFS
210.063	1	3.5	Congruent	n/a	HAPPY	HAPPY	HAPPY	0.727	1	F16HS_5924	NIMH-ChEFS
214.614	1	4	Congruent	n/a	FEAR	FEAR	FEAR	0.912	1	M2FA_4644	NIMH-ChEFS
219.672	1	2.5	Incongruent	pCI	FEAR	HAPPY	FEAR	0.989	1	M16FS_8676	NIMH-ChEFS
223.226	1	3.5	Incongruent	pII	HAPPY	FEAR	HAPPY	0.613	1	F6HA_3882	NIMH-ChEFS
227.777	1	4	Congruent	n/a	FEAR	FEAR	FEAR	1.01	1	F19FS_6344	NIMH-ChEFS
232.832	1	2.5	Congruent	n/a	FEAR	FEAR	FEAR	1.291	1	M8FA_5885	NIMH-ChEFS
236.383	1	2	Incongruent	pCI	HAPPY	FEAR	HAPPY	0.548	1	F32HS_7996	NIMH-ChEFS
239.435	1	3	Incongruent	pII	HAPPY	FEAR	HAPPY	1.096	1	M19HA_9066	NIMH-ChEFS
243.488	1	2.5	Congruent	n/a	FEAR	FEAR	FEAR	0.823	1	M3FS_4775	NIMH-ChEFS
247.038	1	4	Congruent	n/a	HAPPY	HAPPY	HAPPY	0.786	1	F3HA_3545	NIMH-ChEFS
252.091	1	3	Incongruent	pCI	FEAR	HAPPY	FEAR	0.913	1	M9FA_6121	NIMH-ChEFS
256.144	1	2	Incongruent	pII	FEAR	HAPPY	FEAR	0.842	1	F14FA_5638	NIMH-ChEFS
259.199	1	3.5	Congruent	n/a	HAPPY	HAPPY	HAPPY	0.778	1	M6HS_5354	NIMH-ChEFS
263.754	1	2.5	Congruent	n/a	HAPPY	HAPPY	HAPPY	0.642	1	F21HS_6544	NIMH-ChEFS
267.314	1	2	Incongruent	pCI	FEAR	HAPPY	FEAR	1.027	1	M17FS_8783	NIMH-ChEFS
270.365	1	3	Incongruent	pII	HAPPY	FEAR	HAPPY	1.138	1	F37HA_8965	NIMH-ChEFS
274.418	1	3.5	Congruent	n/a	HAPPY	HAPPY	HAPPY	0.968	1	M12HA_7030	NIMH-ChEFS
278.976	1	4	Congruent	n/a	FEAR	FEAR	FEAR	0.704	1	F31FS_7861	NIMH-ChEFS
284.024	1	2	Incongruent	pCI	FEAR	HAPPY	FEAR	1.092	1	F3FA_3605	NIMH-ChEFS
287.081	1	4	Incongruent	pII	HAPPY	FEAR	FEAR	1.186	0	M3HS_4695	NIMH-ChEFS
292.134	1	3	Congruent	n/a	FEAR	FEAR	FEAR	0.869	1	M11FA_6969	NIMH-ChEFS
296.185	1	3.5	Congruent	n/a	HAPPY	HAPPY	HAPPY	0.567	1	F14HS_5590	NIMH-ChEFS
300.741	1	2.5	Incongruent	pCI	FEAR	HAPPY	FEAR	0.914	1	M12FS_7070	NIMH-ChEFS
304.293	1	3.5	Incongruent	pII	FEAR	HAPPY	FEAR	1.076	1	F6FS_3906	NIMH-ChEFS
308.847	1	2	Congruent	n/a	HAPPY	HAPPY	HAPPY	0.883	1	M7HA_5500	NIMH-ChEFS
311.901	1	4	Congruent	n/a	FEAR	FEAR	FEAR	1.358	1	F23FA_7228	NIMH-ChEFS
316.96	1	3	Incongruent	pCI	HAPPY	FEAR	HAPPY	0.837	1	F31HA_8583	NIMH-ChEFS
321.019	1	2.5	Incongruent	pII	HAPPY	FEAR	HAPPY	0.775	1	M11HS_6885	NIMH-ChEFS
324.569	1	2.5	Congruent	n/a	FEAR	FEAR	FEAR	0.97	1	M3FA_4789	NIMH-ChEFS
328.127	1	2	Congruent	n/a	FEAR	FEAR	FEAR	0.877	1	F34FS_8257	NIMH-ChEFS
331.18	1	3	Incongruent	pCI	HAPPY	FEAR	HAPPY	1.04	1	M17HS_8732	NIMH-ChEFS
335.235	1	3.5	Incongruent	pII	FEAR	HAPPY	FEAR	0.984	1	F7FA_4040	NIMH-ChEFS
339.789	1	4	Congruent	n/a	HAPPY	HAPPY	HAPPY	0.734	1	F10HS_4372	NIMH-ChEFS
344.843	1	2	Congruent	n/a	FEAR	FEAR	FEAR	0.881	1	M1FS_4325	NIMH-ChEFS
347.921	1	3.5	Incongruent	pCI	FEAR	HAPPY	FEAR	1.095	1	M6_1FA_5445	NIMH-ChEFS
352.473	1	4	Incongruent	pII	HAPPY	FEAR	HAPPY	0.43	1	F35HA_8422	NIMH-ChEFS
357.526	1	3	Congruent	n/a	HAPPY	HAPPY	HAPPY	1.061	1	M16HA_8638	NIMH-ChEFS
361.573	1	2.5	Congruent	n/a	FEAR	FEAR	FEAR	0.848	1	F12FS_5036	NIMH-ChEFS
365.128	1	2	Incongruent	pCI	HAPPY	FEAR	HAPPY	0.683	1	F1HS_3423	NIMH-ChEFS
368.182	1	3.5	Incongruent	pII	FEAR	HAPPY	FEAR	0.884	1	M7FA_5539	NIMH-ChEFS
372.736	1	3	Congruent	n/a	FEAR	FEAR	FEAR	0.895	1	F34FA_8267	NIMH-ChEFS
376.789	1	2.5	Congruent	n/a	HAPPY	HAPPY	HAPPY	0.746	1	M8HS_5817	NIMH-ChEFS
380.341	1	4	Incongruent	pCI	FEAR	HAPPY	FEAR	1.218	1	F23FS_7205	NIMH-ChEFS
385.422	1	2.5	Incongruent	pII	HAPPY	FEAR	HAPPY	0.982	1	M1HA_4302	NIMH-ChEFS
388.977	1	3	Congruent	n/a	FEAR	FEAR	FEAR	0.744	1	M5FS_5188	NIMH-ChEFS
393.031	1	2	Congruent	n/a	HAPPY	HAPPY	HAPPY	0.526	1	F18HA_6193	NIMH-ChEFS
396.079	1	4	Incongruent	pCI	FEAR	HAPPY	FEAR	0.98	1	M20FA_9277	NIMH-ChEFS
401.133	1	3.5	Incongruent	pII	FEAR	HAPPY	FEAR	0.862	1	F10FA_4434	NIMH-ChEFS
405.687	1	3.5	Congruent	n/a	HAPPY	HAPPY	HAPPY	0.826	1	F7HS_3986	NIMH-ChEFS
410.243	1	2.5	Congruent	n/a	HAPPY	HAPPY	HAPPY	0.835	1	M12HS_7022	NIMH-ChEFS
413.792	1	3	Incongruent	pCI	FEAR	HAPPY	FEAR	0.719	1	M7FS_5530	NIMH-ChEFS
417.844	1	2	Incongruent	pII	HAPPY	FEAR	HAPPY	1.285	1	F21HA_6550	NIMH-ChEFS
420.896	1	4	Congruent	n/a	HAPPY	HAPPY	HAPPY	0.856	1	M17HA_8742	NIMH-ChEFS
425.948	1	3	Congruent	n/a	FEAR	FEAR	FEAR	0.943	1	F39FS_9475	NIMH-ChEFS
430.017	1	3.5	Incongruent	pCI	HAPPY	FEAR	HAPPY	0.908	1	M11HA_6890	NIMH-ChEFS
434.568	1	4	Incongruent	pII	FEAR	HAPPY	FEAR	0.971	1	F19FA_6353	NIMH-ChEFS
439.62	1	2.5	Congruent	n/a	FEAR	FEAR	FEAR	1.043	1	M15FA_8374	NIMH-ChEFS
443.171	1	2	Congruent	n/a	HAPPY	HAPPY	HAPPY	0.731	1	F13HS_5255	NIMH-ChEFS
446.221	1	2.5	Incongruent	pCI	HAPPY	FEAR	HAPPY	0.653	1	M20HS_9191	NIMH-ChEFS
449.774	1	3	Incongruent	pII	FEAR	HAPPY	FEAR	0.852	1	M6FS_5422	NIMH-ChEFS
453.853	1	3.5	Congruent	n/a	HAPPY	HAPPY	HAPPY	0.841	1	F16HA_5934	NIMH-ChEFS
458.405	1	2	Congruent	n/a	FEAR	FEAR	FEAR	1.124	1	M18FA_8913	NIMH-ChEFS
461.456	1	4	Incongruent	pCI	HAPPY	FEAR	HAPPY	0.848	1	F39HS_9426	NIMH-ChEFS
466.504	1	4	Incongruent	pII	FEAR	HAPPY	FEAR	1.173	1	F3FS_3596	NIMH-ChEFS
471.551	1	3	Congruent	n/a	FEAR	FEAR	FEAR	1.169	1	M8FS_5869	NIMH-ChEFS
475.603	1	2	Congruent	n/a	HAPPY	HAPPY	HAPPY	0.71	1	M4HS_4862	NIMH-ChEFS
478.655	1	3.5	Incongruent	pCI	HAPPY	FEAR	HAPPY	1.276	1	F2HA_3451	NIMH-ChEFS
483.202	1	2.5	Incongruent	pII	HAPPY	FEAR	HAPPY	1.449	1	M10HA_6772	NIMH-ChEFS
486.747	1	4	Congruent	n/a	FEAR	FEAR	FEAR	0.87	1	F18FS_6229	NIMH-ChEFS
491.798	1	3.5	Congruent	n/a	HAPPY	HAPPY	HAPPY	0.653	1	F31HS_8581	NIMH-ChEFS
496.348	1	2	Incongruent	pCI	FEAR	HAPPY	FEAR	0.688	1	M12FA_7082	NIMH-ChEFS
499.427	1	3	Incongruent	pII	HAPPY	FEAR	HAPPY	1.311	1	F12HA_5004	NIMH-ChEFS
503.473	1	2.5	Congruent	n/a	FEAR	FEAR	FEAR	0.923	1	F6FA_3922	NIMH-ChEFS
507.025	1	2.5	Congruent	n/a	HAPPY	HAPPY	HAPPY	0.781	1	M5HS_5134	NIMH-ChEFS
510.577	1	2	Incongruent	pCI	HAPPY	FEAR	HAPPY	0.96	1	M14HS_7912	NIMH-ChEFS
513.658	1	3	Incongruent	pII	FEAR	HAPPY	FEAR	1.126	1	F32FS_8041	NIMH-ChEFS
517.711	1	3.5	Congruent	n/a	FEAR	FEAR	FEAR	1.678	1	M19FA_9129	NIMH-ChEFS
522.269	1	4	Congruent	n/a	HAPPY	HAPPY	HAPPY	0.879	1	F34HS_8209	NIMH-ChEFS
527.316	1	4	Incongruent	pCI	HAPPY	FEAR	HAPPY	1.252	1	M18HA_8854	NIMH-ChEFS
532.369	1	2.5	Incongruent	pII	FEAR	HAPPY	FEAR	0.84	1	F16FA_5992	NIMH-ChEFS
535.925	1	2	Congruent	n/a	FEAR	FEAR	FEAR	1.249	1	F37FS_9007	NIMH-ChEFS
539.005	1	3	Congruent	n/a	HAPPY	HAPPY	HAPPY	0.849	1	M3HA_4707	NIMH-ChEFS
543.06	1	3.5	Incongruent	pCI	FEAR	HAPPY	FEAR	0.98	1	M15FS_8364	NIMH-ChEFS
547.613	1	4	Incongruent	pII	FEAR	HAPPY	FEAR	0.959	1	F13FA_5314	NIMH-ChEFS
552.666	1	3	Congruent	n/a	HAPPY	HAPPY	HAPPY	0.864	1	F14HA_5595	NIMH-ChEFS
556.719	1	2.5	Congruent	n/a	FEAR	FEAR	FEAR	0.618	1	M5FA_5198	NIMH-ChEFS
560.297	1	2	Incongruent	pCI	FEAR	HAPPY	FEAR	0.932	1	F2FA_3491	NIMH-ChEFS
563.348	1	3.5	Incongruent	pII	HAPPY	FEAR	HAPPY	1.553	1	F23HS_7148	NIMH-ChEFS
567.899	1	2.5	Congruent	n/a	FEAR	FEAR	FEAR	1.028	1	M18FS_8888	NIMH-ChEFS
571.454	1	3.5	Congruent	n/a	HAPPY	HAPPY	HAPPY	0.482	1	F30HA_8500	NIMH-ChEFS
576.008	1	4	Incongruent	pCI	HAPPY	FEAR	FEAR	0.631	0	M7HS_5497	NIMH-ChEFS
581.064	1	3	Incongruent	pII	FEAR	HAPPY	FEAR	0.533	1	F14FS_5632	NIMH-ChEFS
585.121	1	2	Congruent	n/a	HAPPY	HAPPY	HAPPY	0.629	1	M2HA_4506	NIMH-ChEFS
588.173	1	4	Congruent	n/a	FEAR	FEAR	FEAR	0.847	1	F21FA_6608	NIMH-ChEFS
593.225	1	3	Incongruent	pCI	HAPPY	FEAR	HAPPY	0.735	1	F6HS_3875	NIMH-ChEFS
597.276	1	3.5	Incongruent	pII	HAPPY	FEAR	HAPPY	1.033	1	M19HS_9059	NIMH-ChEFS
601.828	1	2.5	Congruent	n/a	FEAR	FEAR	FEAR	1.152	1	F4FS_3704	NIMH-ChEFS
605.381	1	2	Congruent	n/a	HAPPY	HAPPY	HAPPY	0.81	1	F32HA_7998	NIMH-ChEFS
608.433	1	2.5	Incongruent	pCI	HAPPY	FEAR	HAPPY	1.019	1	M6HA_5360	NIMH-ChEFS
611.986	1	2	Incongruent	pII	FEAR	HAPPY	FEAR	0.749	1	M16FA_8681	NIMH-ChEFS
615.041	1	4	Congruent	n/a	HAPPY	HAPPY	HAPPY	0.797	1	F19HS_6297	NIMH-ChEFS
620.098	1	3	Congruent	n/a	FEAR	FEAR	FEAR	1.359	1	F35FA_8465	NIMH-ChEFS
624.177	1	3.5	Incongruent	pCI	FEAR	HAPPY	FEAR	0.772	1	M4FS_4935	NIMH-ChEFS
628.728	1	2	Incongruent	pII	HAPPY	FEAR	HAPPY	0.653	1	F37HS_8954	NIMH-ChEFS
631.802	1	2.5	Congruent	n/a	FEAR	FEAR	FEAR	1.102	1	F30FS_8546	NIMH-ChEFS
635.359	1	3.5	Congruent	n/a	HAPPY	HAPPY	HAPPY	0.696	1	M9HS_6054	NIMH-ChEFS
639.911	1	3	Incongruent	pCI	FEAR	HAPPY	FEAR	0.624	1	F31FA_7873	NIMH-ChEFS
643.965	1	4	Incongruent	pII	HAPPY	FEAR	HAPPY	0.76	1	F4HA_3668	NIMH-ChEFS
649.019	1	2	Congruent	n/a	HAPPY	HAPPY	HAPPY	0.695	1	M15HA_8321	NIMH-ChEFS
652.069	1	3.5	Incongruent	pCI	HAPPY	FEAR	HAPPY	0.734	1	F3HS_3540	NIMH-ChEFS
656.625	1	4	Incongruent	pII	FEAR	HAPPY	FEAR	0.778	1	M20FS_9236	NIMH-ChEFS
