onset	duration	interstimulus_interval	trial_type	trial_type_2	target_condition	distractor	response	response_time	correct	identifier	database
0.079	1	3.5	Congruent	n/a	FEAR	FEAR	FEAR	0.82	1	M9FS_6104	NIMH-ChEFS
4.645	1	4	Congruent	n/a	HAPPY	HAPPY	HAPPY	0.716	1	F13HA_5265	NIMH-ChEFS
9.729	1	2	Incongruent	pCI	HAPPY	FEAR	HAPPY	0.955	1	M4HA_4877	NIMH-ChEFS
12.823	1	2.5	Incongruent	pII	FEAR	HAPPY	FEAR	0.843	1	F7FS_4016	NIMH-ChEFS
16.387	1	3	Congruent	n/a	HAPPY	HAPPY	HAPPY	0.751	1	F30HS_8495	NIMH-ChEFS
20.466	1	4	Congruent	n/a	FEAR	FEAR	FEAR	0.806	1	M4FA_4941	NIMH-ChEFS
25.545	1	2	Incongruent	pCI	FEAR	HAPPY	FEAR	1.05	1	F32FA_8053	NIMH-ChEFS
28.596	1	3.5	Incongruent	pII	HAPPY	FEAR	HAPPY	0.851	1	M10HS_6767	NIMH-ChEFS
33.152	1	2.5	Congruent	n/a	HAPPY	HAPPY	HAPPY	0.826	1	F23HA_7156	NIMH-ChEFS
36.707	1	3	Congruent	n/a	FEAR	FEAR	FEAR	0.822	1	F13FS_5292	NIMH-ChEFS
40.764	1	4	Incongruent	pCI	HAPPY	FEAR	HAPPY	1.18	1	F4HS_3664	NIMH-ChEFS
45.826	1	3	Incongruent	pII	HAPPY	FEAR	HAPPY	0.923	1	M20HA_9192	NIMH-ChEFS
49.895	1	2.5	Congruent	n/a	FEAR	FEAR	FEAR	0.609	1	F18FA_6243	NIMH-ChEFS
53.45	1	3.5	Congruent	n/a	HAPPY	HAPPY	HAPPY	0.914	1	M18HS_8848	NIMH-ChEFS
58.028	1	2	Incongruent	pCI	FEAR	HAPPY	FEAR	0.873	1	M14FS_7958	NIMH-ChEFS
61.08	1	4	Incongruent	pII	HAPPY	FEAR	HAPPY	0.839	1	F39HA_9433	NIMH-ChEFS
66.133	1	2.5	Congruent	n/a	FEAR	FEAR	FEAR	0.852	1	M10_FA_6823	NIMH-ChEFS
69.71	1	3.5	Congruent	n/a	HAPPY	HAPPY	HAPPY	0.737	1	F12HS_5000	NIMH-ChEFS
74.267	1	2	Incongruent	pCI	FEAR	HAPPY	FEAR	0.923	1	M17FA_8799	NIMH-ChEFS
77.322	1	3	Incongruent	pII	FEAR	HAPPY	FEAR	0.92	1	F2FS_3470	NIMH-ChEFS
81.377	1	2.5	Congruent	n/a	HAPPY	HAPPY	HAPPY	0.752	1	M14HA_7913	NIMH-ChEFS
84.927	1	2	Congruent	n/a	HAPPY	HAPPY	HAPPY	0.732	1	F7HA_3985	NIMH-ChEFS
87.982	1	4	Incongruent	pCI	FEAR	HAPPY	FEAR	0.919	1	M2FS_4636	NIMH-ChEFS
93.036	1	3	Incongruent	pII	HAPPY	FEAR	HAPPY	1.837	1	F18HS_6186	NIMH-ChEFS
97.092	1	3.5	Congruent	n/a	FEAR	FEAR	FEAR	0.85	1	F39FA_9489	NIMH-ChEFS
101.65	1	2	Congruent	n/a	HAPPY	HAPPY	HAPPY	0.755	1	M2HS_4493	NIMH-ChEFS
104.709	1	3	Incongruent	pCI	HAPPY	FEAR	HAPPY	1.012	1	F1HA_3424	NIMH-ChEFS
108.762	1	3.5	Incongruent	pII	FEAR	HAPPY	FEAR	0.818	1	M6FA__5449	NIMH-ChEFS
113.314	1	2.5	Congruent	n/a	FEAR	FEAR	FEAR	0.978	1	M19FS_9117	NIMH-ChEFS
116.873	1	4	Congruent	n/a	HAPPY	HAPPY	HAPPY	0.566	1	F35HS_8418	NIMH-ChEFS
121.921	1	3	Incongruent	pCI	FEAR	HAPPY	FEAR	1.152	1	F16FS_5978	NIMH-ChEFS
125.976	1	4	Incongruent	pII	FEAR	HAPPY	FEAR	1.269	1	M1FA_4336	NIMH-ChEFS
131.034	1	3.5	Congruent	n/a	HAPPY	HAPPY	HAPPY	0.574	1	M9HA_6057	NIMH-ChEFS
135.585	1	2.5	Congruent	n/a	FEAR	FEAR	FEAR	0.682	1	F4FA_3712	NIMH-ChEFS
139.136	1	2	Incongruent	pCI	HAPPY	FEAR	HAPPY	0.817	1	M15HS_8316	NIMH-ChEFS
142.193	1	2	Incongruent	pII	FEAR	HAPPY	FEAR	0.737	1	F21FS_6587	NIMH-ChEFS
145.249	1	4	Congruent	n/a	HAPPY	HAPPY	HAPPY	1.083	1	F19HA_6311	NIMH-ChEFS
150.306	1	3.5	Congruent	n/a	FEAR	FEAR	FEAR	0.66	1	M10_4FS_6817	NIMH-ChEFS
154.861	1	3	Incongruent	pCI	HAPPY	FEAR	HAPPY	0.85	1	F2HS_3448	NIMH-ChEFS
158.936	1	2.5	Incongruent	pII	HAPPY	FEAR	FEAR	1.118	0	F10HA_4379	NIMH-ChEFS
162.511	1	4	Congruent	n/a	FEAR	FEAR	FEAR	0.719	1	M14FA_7960	NIMH-ChEFS
167.563	1	3	Congruent	n/a	FEAR	FEAR	FEAR	1.106	1	F30FA_8552	NIMH-ChEFS
171.638	1	3.5	Incongruent	pCI	HAPPY	FEAR	HAPPY	1.242	1	M8HA_5828	NIMH-ChEFS
176.187	1	2	Incongruent	pII	FEAR	HAPPY	FEAR	0.862	1	F35FS_8451	NIMH-ChEFS
179.243	1	2.5	Congruent	n/a	HAPPY	HAPPY	HAPPY	0.741	1	M1HS_4301	NIMH-ChEFS
182.821	1	2.5	Congruent	n/a	FEAR	FEAR	FEAR	0.937	1	F37FA_9020	NIMH-ChEFS
186.373	1	3.5	Incongruent	pCI	FEAR	HAPPY	FEAR	1.169	1	M11FS_6953	NIMH-ChEFS
190.951	1	3	Incongruent	pII	HAPPY	FEAR	HAPPY	0.665	1	F34HA_8219	NIMH-ChEFS
195.001	1	4	Congruent	n/a	FEAR	FEAR	FEAR	0.744	1	F10FS_4426	NIMH-ChEFS
200.06	1	2	Congruent	n/a	HAPPY	HAPPY	HAPPY	0.698	1	M16HS_8633	NIMH-ChEFS
203.14	1	3	Incongruent	pCI	HAPPY	FEAR	HAPPY	0.847	1	M5HA_5140	NIMH-ChEFS
207.217	1	2	Incongruent	pII	FEAR	HAPPY	FEAR	0.828	1	F12FA_5062	NIMH-ChEFS
210.272	1	3.5	Congruent	n/a	HAPPY	HAPPY	HAPPY	0.888	1	F16HS_5924	NIMH-ChEFS
214.825	1	4	Congruent	n/a	FEAR	FEAR	FEAR	1.075	1	M2FA_4644	NIMH-ChEFS
219.878	1	2.5	Incongruent	pCI	FEAR	HAPPY	FEAR	0.841	1	M16FS_8676	NIMH-ChEFS
223.455	1	3.5	Incongruent	pII	HAPPY	FEAR	HAPPY	1.473	1	F6HA_3882	NIMH-ChEFS
228	1	4	Congruent	n/a	FEAR	FEAR	FEAR	0.785	1	F19FS_6344	NIMH-ChEFS
233.053	1	2.5	Congruent	n/a	FEAR	FEAR	FEAR	0.793	1	M8FA_5885	NIMH-ChEFS
236.607	1	2	Incongruent	pCI	HAPPY	FEAR	HAPPY	1.046	1	F32HS_7996	NIMH-ChEFS
239.688	1	3	Incongruent	pII	HAPPY	FEAR	HAPPY	0.939	1	M19HA_9066	NIMH-ChEFS
243.74	1	2.5	Congruent	n/a	FEAR	FEAR	FEAR	0.744	1	M3FS_4775	NIMH-ChEFS
247.298	1	4	Congruent	n/a	HAPPY	HAPPY	HAPPY	0.643	1	F3HA_3545	NIMH-ChEFS
252.351	1	3	Incongruent	pCI	FEAR	HAPPY	FEAR	0.772	1	M9FA_6121	NIMH-ChEFS
256.404	1	2	Incongruent	pII	FEAR	HAPPY	FEAR	0.782	1	F14FA_5638	NIMH-ChEFS
259.461	1	3.5	Congruent	n/a	HAPPY	HAPPY	HAPPY	1.042	1	M6HS_5354	NIMH-ChEFS
264.012	1	2.5	Congruent	n/a	HAPPY	HAPPY	HAPPY	0.724	1	F21HS_6544	NIMH-ChEFS
267.567	1	2	Incongruent	pCI	FEAR	HAPPY	FEAR	0.777	1	M17FS_8783	NIMH-ChEFS
270.644	1	3	Incongruent	pII	HAPPY	FEAR	FEAR	1.724	0	F37HA_8965	NIMH-ChEFS
274.719	1	3.5	Congruent	n/a	HAPPY	HAPPY	HAPPY	0.706	1	M12HA_7030	NIMH-ChEFS
279.272	1	4	Congruent	n/a	FEAR	FEAR	FEAR	0.922	1	F31FS_7861	NIMH-ChEFS
284.33	1	2	Incongruent	pCI	FEAR	HAPPY	HAPPY	1.07	0	F3FA_3605	NIMH-ChEFS
287.403	1	4	Incongruent	pII	HAPPY	FEAR	HAPPY	1.194	1	M3HS_4695	NIMH-ChEFS
292.454	1	3	Congruent	n/a	FEAR	FEAR	FEAR	0.777	1	M11FA_6969	NIMH-ChEFS
296.51	1	3.5	Congruent	n/a	HAPPY	HAPPY	HAPPY	0.717	1	F14HS_5590	NIMH-ChEFS
301.067	1	2.5	Incongruent	pCI	FEAR	HAPPY	HAPPY	1.131	0	M12FS_7070	NIMH-ChEFS
304.625	1	3.5	Incongruent	pII	FEAR	HAPPY	FEAR	0.901	1	F6FS_3906	NIMH-ChEFS
309.179	1	2	Congruent	n/a	HAPPY	HAPPY	HAPPY	0.903	1	M7HA_5500	NIMH-ChEFS
312.254	1	4	Congruent	n/a	FEAR	FEAR	FEAR	0.666	1	F23FA_7228	NIMH-ChEFS
317.313	1	3	Incongruent	pCI	HAPPY	FEAR	HAPPY	0.513	1	F31HA_8583	NIMH-ChEFS
321.366	1	2.5	Incongruent	pII	HAPPY	FEAR	HAPPY	0.851	1	M11HS_6885	NIMH-ChEFS
324.945	1	2.5	Congruent	n/a	FEAR	FEAR	FEAR	0.726	1	M3FA_4789	NIMH-ChEFS
328.501	1	2	Congruent	n/a	FEAR	FEAR	FEAR	0.939	1	F34FS_8257	NIMH-ChEFS
331.575	1	3	Incongruent	pCI	HAPPY	FEAR	HAPPY	1.067	1	M17HS_8732	NIMH-ChEFS
335.63	1	3.5	Incongruent	pII	FEAR	HAPPY	FEAR	0.787	1	F7FA_4040	NIMH-ChEFS
340.213	1	4	Congruent	n/a	HAPPY	HAPPY	HAPPY	0.574	1	F10HS_4372	NIMH-ChEFS
345.289	1	2	Congruent	n/a	FEAR	FEAR	FEAR	0.654	1	M1FS_4325	NIMH-ChEFS
348.343	1	3.5	Incongruent	pCI	FEAR	HAPPY	FEAR	1.699	1	M6_1FA_5445	NIMH-ChEFS
352.897	1	4	Incongruent	pII	HAPPY	FEAR	HAPPY	0.603	1	F35HA_8422	NIMH-ChEFS
357.95	1	3	Congruent	n/a	HAPPY	HAPPY	HAPPY	0.825	1	M16HA_8638	NIMH-ChEFS
362.002	1	2.5	Congruent	n/a	FEAR	FEAR	FEAR	1.143	1	F12FS_5036	NIMH-ChEFS
365.557	1	2	Incongruent	pCI	HAPPY	FEAR	HAPPY	1.035	1	F1HS_3423	NIMH-ChEFS
368.638	1	3.5	Incongruent	pII	FEAR	HAPPY	FEAR	1.174	1	M7FA_5539	NIMH-ChEFS
373.218	1	3	Congruent	n/a	FEAR	FEAR	FEAR	0.607	1	F34FA_8267	NIMH-ChEFS
377.277	1	2.5	Congruent	n/a	HAPPY	HAPPY	HAPPY	0.637	1	M8HS_5817	NIMH-ChEFS
380.855	1	4	Incongruent	pCI	FEAR	HAPPY	HAPPY	1.472	0	F23FS_7205	NIMH-ChEFS
385.908	1	2.5	Incongruent	pII	HAPPY	FEAR	HAPPY	1.082	1	M1HA_4302	NIMH-ChEFS
389.485	1	3	Congruent	n/a	FEAR	FEAR	FEAR	1.151	1	M5FS_5188	NIMH-ChEFS
393.565	1	2	Congruent	n/a	HAPPY	HAPPY	HAPPY	0.744	1	F18HA_6193	NIMH-ChEFS
396.621	1	4	Incongruent	pCI	FEAR	HAPPY	HAPPY	0.872	0	M20FA_9277	NIMH-ChEFS
401.698	1	3.5	Incongruent	pII	FEAR	HAPPY	FEAR	1.1	1	F10FA_4434	NIMH-ChEFS
406.254	1	3.5	Congruent	n/a	HAPPY	HAPPY	HAPPY	0.75	1	F7HS_3986	NIMH-ChEFS
410.831	1	2.5	Congruent	n/a	HAPPY	HAPPY	HAPPY	1.233	1	M12HS_7022	NIMH-ChEFS
414.39	1	3	Incongruent	pCI	FEAR	HAPPY	FEAR	1.253	1	M7FS_5530	NIMH-ChEFS
418.445	1	2	Incongruent	pII	HAPPY	FEAR	FEAR	1.16	0	F21HA_6550	NIMH-ChEFS
421.522	1	4	Congruent	n/a	HAPPY	HAPPY	HAPPY	0.817	1	M17HA_8742	NIMH-ChEFS
426.578	1	3	Congruent	n/a	FEAR	FEAR	FEAR	0.865	1	F39FS_9475	NIMH-ChEFS
430.635	1	3.5	Incongruent	pCI	HAPPY	FEAR	HAPPY	1.027	1	M11HA_6890	NIMH-ChEFS
435.189	1	4	Incongruent	pII	FEAR	HAPPY	FEAR	0.822	1	F19FA_6353	NIMH-ChEFS
440.244	1	2.5	Congruent	n/a	FEAR	FEAR	FEAR	0.831	1	M15FA_8374	NIMH-ChEFS
443.8	1	2	Congruent	n/a	HAPPY	HAPPY	HAPPY	0.785	1	F13HS_5255	NIMH-ChEFS
446.859	1	2.5	Incongruent	pCI	HAPPY	FEAR	HAPPY	1.47	1	M20HS_9191	NIMH-ChEFS
450.414	1	3	Incongruent	pII	FEAR	HAPPY	FEAR	0.718	1	M6FS_5422	NIMH-ChEFS
454.468	1	3.5	Congruent	n/a	HAPPY	HAPPY	HAPPY	0.806	1	F16HA_5934	NIMH-ChEFS
459.026	1	2	Congruent	n/a	FEAR	FEAR	FEAR	0.639	1	M18FA_8913	NIMH-ChEFS
462.073	1	4	Incongruent	pCI	HAPPY	FEAR	HAPPY	0.808	1	F39HS_9426	NIMH-ChEFS
467.157	1	4	Incongruent	pII	FEAR	HAPPY	FEAR	1.221	1	F3FS_3596	NIMH-ChEFS
472.212	1	3	Congruent	n/a	FEAR	FEAR	FEAR	0.983	1	M8FS_5869	NIMH-ChEFS
476.266	1	2	Congruent	n/a	HAPPY	HAPPY	HAPPY	1.092	1	M4HS_4862	NIMH-ChEFS
479.342	1	3.5	Incongruent	pCI	HAPPY	FEAR	FEAR	1.133	0	F2HA_3451	NIMH-ChEFS
483.899	1	2.5	Incongruent	pII	HAPPY	FEAR	HAPPY	1.603	1	M10HA_6772	NIMH-ChEFS
487.453	1	4	Congruent	n/a	FEAR	FEAR	FEAR	0.953	1	F18FS_6229	NIMH-ChEFS
492.511	1	3.5	Congruent	n/a	HAPPY	HAPPY	HAPPY	0.778	1	F31HS_8581	NIMH-ChEFS
497.06	1	2	Incongruent	pCI	FEAR	HAPPY	FEAR	1.171	1	M12FA_7082	NIMH-ChEFS
500.138	1	3	Incongruent	pII	HAPPY	FEAR	HAPPY	0.822	1	F12HA_5004	NIMH-ChEFS
504.185	1	2.5	Congruent	n/a	FEAR	FEAR	FEAR	1.337	1	F6FA_3922	NIMH-ChEFS
507.741	1	2.5	Congruent	n/a	HAPPY	HAPPY	HAPPY	0.942	1	M5HS_5134	NIMH-ChEFS
511.32	1	2	Incongruent	pCI	HAPPY	FEAR	HAPPY	1.415	1	M14HS_7912	NIMH-ChEFS
514.395	1	3	Incongruent	pII	FEAR	HAPPY	FEAR	0.757	1	F32FS_8041	NIMH-ChEFS
518.474	1	3.5	Congruent	n/a	FEAR	FEAR	FEAR	1.404	1	M19FA_9129	NIMH-ChEFS
523.05	1	4	Congruent	n/a	HAPPY	HAPPY	HAPPY	0.868	1	F34HS_8209	NIMH-ChEFS
528.127	1	4	Incongruent	pCI	HAPPY	FEAR	HAPPY	0.838	1	M18HA_8854	NIMH-ChEFS
533.18	1	2.5	Incongruent	pII	FEAR	HAPPY	FEAR	1.013	1	F16FA_5992	NIMH-ChEFS
536.731	1	2	Congruent	n/a	FEAR	FEAR	FEAR	0.696	1	F37FS_9007	NIMH-ChEFS
539.809	1	3	Congruent	n/a	HAPPY	HAPPY	HAPPY	1.032	1	M3HA_4707	NIMH-ChEFS
543.863	1	3.5	Incongruent	pCI	FEAR	HAPPY	FEAR	0.818	1	M15FS_8364	NIMH-ChEFS
548.423	1	4	Incongruent	pII	FEAR	HAPPY	FEAR	0.991	1	F13FA_5314	NIMH-ChEFS
553.505	1	3	Congruent	n/a	HAPPY	HAPPY	HAPPY	0.626	1	F14HA_5595	NIMH-ChEFS
557.558	1	2.5	Congruent	n/a	FEAR	FEAR	FEAR	0.98	1	M5FA_5198	NIMH-ChEFS
561.136	1	2	Incongruent	pCI	FEAR	HAPPY	FEAR	1.064	1	F2FA_3491	NIMH-ChEFS
564.186	1	3.5	Incongruent	pII	HAPPY	FEAR	HAPPY	0.846	1	F23HS_7148	NIMH-ChEFS
568.739	1	2.5	Congruent	n/a	FEAR	FEAR	FEAR	0.728	1	M18FS_8888	NIMH-ChEFS
572.289	1	3.5	Congruent	n/a	HAPPY	HAPPY	HAPPY	0.872	1	F30HA_8500	NIMH-ChEFS
576.865	1	4	Incongruent	pCI	HAPPY	FEAR	HAPPY	0.71	1	M7HS_5497	NIMH-ChEFS
581.921	1	3	Incongruent	pII	FEAR	HAPPY	FEAR	1.265	1	F14FS_5632	NIMH-ChEFS
585.997	1	2	Congruent	n/a	HAPPY	HAPPY	HAPPY	0.837	1	M2HA_4506	NIMH-ChEFS
589.048	1	4	Congruent	n/a	FEAR	FEAR	HAPPY	1.564	0	F21FA_6608	NIMH-ChEFS
594.103	1	3	Incongruent	pCI	HAPPY	FEAR	HAPPY	0.912	1	F6HS_3875	NIMH-ChEFS
598.157	1	3.5	Incongruent	pII	HAPPY	FEAR	HAPPY	0.904	1	M19HS_9059	NIMH-ChEFS
602.71	1	2.5	Congruent	n/a	FEAR	FEAR	FEAR	0.726	1	F4FS_3704	NIMH-ChEFS
606.262	1	2	Congruent	n/a	HAPPY	HAPPY	HAPPY	1.336	1	F32HA_7998	NIMH-ChEFS
609.331	1	2.5	Incongruent	pCI	HAPPY	FEAR	FEAR	0.972	0	M6HA_5360	NIMH-ChEFS
612.887	1	2	Incongruent	pII	FEAR	HAPPY	FEAR	0.85	1	M16FA_8681	NIMH-ChEFS
615.935	1	4	Congruent	n/a	HAPPY	HAPPY	HAPPY	0.747	1	F19HS_6297	NIMH-ChEFS
621.015	1	3	Congruent	n/a	FEAR	FEAR	FEAR	0.704	1	F35FA_8465	NIMH-ChEFS
625.068	1	3.5	Incongruent	pCI	FEAR	HAPPY	FEAR	1.167	1	M4FS_4935	NIMH-ChEFS
629.644	1	2	Incongruent	pII	HAPPY	FEAR	HAPPY	0.999	1	F37HS_8954	NIMH-ChEFS
632.72	1	2.5	Congruent	n/a	FEAR	FEAR	FEAR	0.924	1	F30FS_8546	NIMH-ChEFS
636.276	1	3.5	Congruent	n/a	HAPPY	HAPPY	HAPPY	0.71	1	M9HS_6054	NIMH-ChEFS
640.831	1	3	Incongruent	pCI	FEAR	HAPPY	FEAR	1.054	1	F31FA_7873	NIMH-ChEFS
644.883	1	4	Incongruent	pII	HAPPY	FEAR	HAPPY	1.106	1	F4HA_3668	NIMH-ChEFS
649.938	1	2	Congruent	n/a	HAPPY	HAPPY	HAPPY	0.751	1	M15HA_8321	NIMH-ChEFS
653.016	1	3.5	Incongruent	pCI	HAPPY	FEAR	HAPPY	1.1	1	F3HS_3540	NIMH-ChEFS
657.569	1	4	Incongruent	pII	FEAR	HAPPY	HAPPY	0.882	0	M20FS_9236	NIMH-ChEFS
