onset	duration	interstimulus_interval	trial_type	trial_type_2	target_condition	distractor	response	response_time	correct	identifier	database
0.073	1	4	Congruent	n/a	FEAR	FEAR	no_resp	-0.099	0	M9FS_6104	NIMH-ChEFS
5.125	1	2	Congruent	n/a	HAPPY	HAPPY	HAPPY	0.876	1	F13HA_5265	NIMH-ChEFS
8.203	1	2.5	Incongruent	pCI	HAPPY	FEAR	HAPPY	0.922	1	M4HA_4877	NIMH-ChEFS
11.785	1	3	Incongruent	pII	FEAR	HAPPY	FEAR	1.325	1	F7FS_4016	NIMH-ChEFS
15.833	1	3.5	Congruent	n/a	HAPPY	HAPPY	HAPPY	0.718	1	F30HS_8495	NIMH-ChEFS
20.376	1	4	Congruent	n/a	FEAR	FEAR	FEAR	0.806	1	M4FA_4941	NIMH-ChEFS
25.423	1	2.5	Incongruent	pCI	FEAR	HAPPY	FEAR	1.121	1	F32FA_8053	NIMH-ChEFS
28.995	1	3	Incongruent	pII	HAPPY	FEAR	HAPPY	0.792	1	M10HS_6767	NIMH-ChEFS
33.062	1	2	Congruent	n/a	HAPPY	HAPPY	HAPPY	1.159	1	F23HA_7156	NIMH-ChEFS
36.107	1	3.5	Congruent	n/a	FEAR	FEAR	FEAR	0.965	1	F13FS_5292	NIMH-ChEFS
40.673	1	4	Incongruent	pCI	HAPPY	FEAR	HAPPY	0.601	1	F4HS_3664	NIMH-ChEFS
45.718	1	2	Incongruent	pII	HAPPY	FEAR	HAPPY	0.775	1	M20HA_9192	NIMH-ChEFS
48.785	1	3	Congruent	n/a	FEAR	FEAR	FEAR	0.853	1	F18FA_6243	NIMH-ChEFS
52.852	1	2.5	Congruent	n/a	HAPPY	HAPPY	HAPPY	0.645	1	M18HS_8848	NIMH-ChEFS
56.398	1	3.5	Incongruent	pCI	FEAR	HAPPY	FEAR	0.979	1	M14FS_7958	NIMH-ChEFS
60.942	1	4	Incongruent	pII	HAPPY	FEAR	HAPPY	0.663	1	F39HA_9433	NIMH-ChEFS
65.986	1	3	Congruent	n/a	FEAR	FEAR	FEAR	1.225	1	M10_FA_6823	NIMH-ChEFS
70.053	1	3.5	Congruent	n/a	HAPPY	HAPPY	HAPPY	0.617	1	F12HS_5000	NIMH-ChEFS
74.623	1	2	Incongruent	pCI	FEAR	HAPPY	FEAR	0.938	1	M17FA_8799	NIMH-ChEFS
77.692	1	2.5	Incongruent	pII	FEAR	HAPPY	FEAR	1.183	1	F2FS_3470	NIMH-ChEFS
81.261	1	3.5	Congruent	n/a	HAPPY	HAPPY	HAPPY	0.596	1	M14HA_7913	NIMH-ChEFS
85.829	1	2	Congruent	n/a	HAPPY	HAPPY	FEAR	0.684	0	F7HA_3985	NIMH-ChEFS
88.877	1	2.5	Incongruent	pCI	FEAR	HAPPY	FEAR	1.249	1	M2FS_4636	NIMH-ChEFS
92.444	1	3	Incongruent	pII	HAPPY	FEAR	HAPPY	0.53	1	F18HS_6186	NIMH-ChEFS
96.513	1	4	Congruent	n/a	FEAR	FEAR	FEAR	0.742	1	F39FA_9489	NIMH-ChEFS
101.584	1	2.5	Congruent	n/a	HAPPY	HAPPY	HAPPY	0.563	1	M2HS_4493	NIMH-ChEFS
105.149	1	2	Incongruent	pCI	HAPPY	FEAR	no_resp	-0.099	0	F1HA_3424	NIMH-ChEFS
108.192	1	4	Incongruent	pII	FEAR	HAPPY	HAPPY	1.138	0	M6FA__5449	NIMH-ChEFS
113.261	1	3.5	Congruent	n/a	FEAR	FEAR	FEAR	1.042	1	M19FS_9117	NIMH-ChEFS
117.829	1	3	Congruent	n/a	HAPPY	HAPPY	HAPPY	0.82	1	F35HS_8418	NIMH-ChEFS
121.899	1	3.5	Incongruent	pCI	FEAR	HAPPY	FEAR	1.159	1	F16FS_5978	NIMH-ChEFS
126.446	1	4	Incongruent	pII	FEAR	HAPPY	FEAR	0.878	1	M1FA_4336	NIMH-ChEFS
131.494	1	3	Congruent	n/a	HAPPY	HAPPY	HAPPY	0.676	1	M9HA_6057	NIMH-ChEFS
135.563	1	2.5	Congruent	n/a	FEAR	FEAR	FEAR	0.667	1	F4FA_3712	NIMH-ChEFS
139.129	1	2	Incongruent	pCI	HAPPY	FEAR	HAPPY	0.668	1	M15HS_8316	NIMH-ChEFS
142.199	1	2.5	Incongruent	pII	FEAR	HAPPY	FEAR	0.897	1	F21FS_6587	NIMH-ChEFS
145.766	1	2	Congruent	n/a	HAPPY	HAPPY	HAPPY	0.663	1	F19HA_6311	NIMH-ChEFS
148.834	1	3	Congruent	n/a	FEAR	FEAR	FEAR	0.729	1	M10_4FS_6817	NIMH-ChEFS
152.903	1	3.5	Incongruent	pCI	HAPPY	FEAR	HAPPY	0.915	1	F2HS_3448	NIMH-ChEFS
157.449	1	4	Incongruent	pII	HAPPY	FEAR	HAPPY	0.684	1	F10HA_4379	NIMH-ChEFS
162.514	1	3	Congruent	n/a	FEAR	FEAR	FEAR	0.397	1	M14FA_7960	NIMH-ChEFS
166.579	1	2.5	Congruent	n/a	FEAR	FEAR	FEAR	0.647	1	F30FA_8552	NIMH-ChEFS
170.147	1	2	Incongruent	pCI	HAPPY	FEAR	HAPPY	0.689	1	M8HA_5828	NIMH-ChEFS
173.219	1	4	Incongruent	pII	FEAR	HAPPY	FEAR	1.05	1	F35FS_8451	NIMH-ChEFS
178.289	1	3.5	Congruent	n/a	HAPPY	HAPPY	HAPPY	0.562	1	M1HS_4301	NIMH-ChEFS
182.856	1	2.5	Congruent	n/a	FEAR	FEAR	FEAR	0.63	1	F37FA_9020	NIMH-ChEFS
186.403	1	3	Incongruent	pCI	FEAR	HAPPY	FEAR	0.839	1	M11FS_6953	NIMH-ChEFS
190.451	1	3.5	Incongruent	pII	HAPPY	FEAR	HAPPY	0.585	1	F34HA_8219	NIMH-ChEFS
195.017	1	4	Congruent	n/a	FEAR	FEAR	FEAR	0.634	1	F10FS_4426	NIMH-ChEFS
200.073	1	2	Congruent	n/a	HAPPY	HAPPY	HAPPY	1.171	1	M16HS_8633	NIMH-ChEFS
203.118	1	4	Incongruent	pCI	HAPPY	FEAR	HAPPY	1.22	1	M5HA_5140	NIMH-ChEFS
208.19	1	2	Incongruent	pII	FEAR	HAPPY	FEAR	0.481	1	F12FA_5062	NIMH-ChEFS
211.261	1	3.5	Congruent	n/a	HAPPY	HAPPY	HAPPY	0.891	1	F16HS_5924	NIMH-ChEFS
215.829	1	2.5	Congruent	n/a	FEAR	FEAR	FEAR	0.643	1	M2FA_4644	NIMH-ChEFS
219.397	1	3	Incongruent	pCI	FEAR	HAPPY	FEAR	1.202	1	M16FS_8676	NIMH-ChEFS
223.463	1	2	Incongruent	pII	HAPPY	FEAR	HAPPY	0.883	1	F6HA_3882	NIMH-ChEFS
226.511	1	4	Congruent	n/a	FEAR	FEAR	FEAR	0.774	1	F19FS_6344	NIMH-ChEFS
231.557	1	2.5	Congruent	n/a	FEAR	FEAR	FEAR	0.97	1	M8FA_5885	NIMH-ChEFS
235.127	1	3	Incongruent	pCI	HAPPY	FEAR	HAPPY	1.236	1	F32HS_7996	NIMH-ChEFS
239.196	1	3.5	Incongruent	pII	HAPPY	FEAR	FEAR	0.672	0	M19HA_9066	NIMH-ChEFS
243.765	1	4	Congruent	n/a	FEAR	FEAR	FEAR	0.533	1	M3FS_4775	NIMH-ChEFS
248.835	1	3	Congruent	n/a	HAPPY	HAPPY	HAPPY	0.854	1	F3HA_3545	NIMH-ChEFS
252.906	1	3.5	Incongruent	pCI	FEAR	HAPPY	FEAR	0.807	1	M9FA_6121	NIMH-ChEFS
257.447	1	2	Incongruent	pII	FEAR	HAPPY	FEAR	0.684	1	F14FA_5638	NIMH-ChEFS
260.492	1	2.5	Congruent	n/a	HAPPY	HAPPY	HAPPY	0.55	1	M6HS_5354	NIMH-ChEFS
264.059	1	3	Congruent	n/a	HAPPY	HAPPY	HAPPY	0.98	1	F21HS_6544	NIMH-ChEFS
268.105	1	2	Incongruent	pCI	FEAR	HAPPY	FEAR	0.755	1	M17FS_8783	NIMH-ChEFS
271.173	1	2.5	Incongruent	pII	HAPPY	FEAR	no_resp	-0.099	0	F37HA_8965	NIMH-ChEFS
274.716	1	4	Congruent	n/a	HAPPY	HAPPY	FEAR	1.018	0	M12HA_7030	NIMH-ChEFS
279.784	1	3.5	Congruent	n/a	FEAR	FEAR	FEAR	0.862	1	F31FS_7861	NIMH-ChEFS
284.356	1	2	Incongruent	pCI	FEAR	HAPPY	FEAR	0.692	1	F3FA_3605	NIMH-ChEFS
287.403	1	3.5	Incongruent	pII	HAPPY	FEAR	HAPPY	1.172	1	M3HS_4695	NIMH-ChEFS
291.97	1	3	Congruent	n/a	FEAR	FEAR	FEAR	0.577	1	M11FA_6969	NIMH-ChEFS
296.04	1	4	Congruent	n/a	HAPPY	HAPPY	HAPPY	0.701	1	F14HS_5590	NIMH-ChEFS
301.107	1	2.5	Incongruent	pCI	FEAR	HAPPY	FEAR	0.603	1	M12FS_7070	NIMH-ChEFS
304.655	1	3	Incongruent	pII	FEAR	HAPPY	FEAR	0.806	1	F6FS_3906	NIMH-ChEFS
308.701	1	4	Congruent	n/a	HAPPY	HAPPY	HAPPY	1.127	1	M7HA_5500	NIMH-ChEFS
313.747	1	2	Congruent	n/a	FEAR	FEAR	FEAR	0.638	1	F23FA_7228	NIMH-ChEFS
316.791	1	3.5	Incongruent	pCI	HAPPY	FEAR	HAPPY	0.599	1	F31HA_8583	NIMH-ChEFS
321.361	1	2.5	Incongruent	pII	HAPPY	FEAR	HAPPY	0.912	1	M11HS_6885	NIMH-ChEFS
324.931	1	2	Congruent	n/a	FEAR	FEAR	FEAR	0.652	1	M3FA_4789	NIMH-ChEFS
328	1	4	Congruent	n/a	FEAR	FEAR	HAPPY	0.74	0	F34FS_8257	NIMH-ChEFS
333.067	1	3	Incongruent	pCI	HAPPY	FEAR	HAPPY	1.183	1	M17HS_8732	NIMH-ChEFS
337.135	1	3.5	Incongruent	pII	FEAR	HAPPY	FEAR	0.982	1	F7FA_4040	NIMH-ChEFS
341.704	1	2.5	Congruent	n/a	HAPPY	HAPPY	HAPPY	0.85	1	F10HS_4372	NIMH-ChEFS
345.272	1	4	Congruent	n/a	FEAR	FEAR	FEAR	0.594	1	M1FS_4325	NIMH-ChEFS
350.343	1	3.5	Incongruent	pCI	FEAR	HAPPY	FEAR	0.919	1	M6_1FA_5445	NIMH-ChEFS
354.913	1	2.5	Incongruent	pII	HAPPY	FEAR	HAPPY	0.922	1	F35HA_8422	NIMH-ChEFS
358.482	1	2	Congruent	n/a	HAPPY	HAPPY	FEAR	0.538	0	M16HA_8638	NIMH-ChEFS
361.55	1	3	Congruent	n/a	FEAR	FEAR	HAPPY	0.633	0	F12FS_5036	NIMH-ChEFS
365.596	1	2	Incongruent	pCI	HAPPY	FEAR	HAPPY	0.703	1	F1HS_3423	NIMH-ChEFS
368.64	1	2.5	Incongruent	pII	FEAR	HAPPY	FEAR	0.621	1	M7FA_5539	NIMH-ChEFS
372.209	1	3	Congruent	n/a	FEAR	FEAR	FEAR	0.923	1	F34FA_8267	NIMH-ChEFS
376.278	1	3.5	Congruent	n/a	HAPPY	HAPPY	HAPPY	0.758	1	M8HS_5817	NIMH-ChEFS
380.848	1	4	Incongruent	pCI	FEAR	HAPPY	no_resp	-0.099	0	F23FS_7205	NIMH-ChEFS
385.888	1	4	Incongruent	pII	HAPPY	FEAR	HAPPY	0.777	1	M1HA_4302	NIMH-ChEFS
390.956	1	3	Congruent	n/a	FEAR	FEAR	FEAR	0.954	1	M5FS_5188	NIMH-ChEFS
395.025	1	2.5	Congruent	n/a	HAPPY	HAPPY	HAPPY	0.82	1	F18HA_6193	NIMH-ChEFS
398.571	1	3.5	Incongruent	pCI	FEAR	HAPPY	HAPPY	0.929	0	M20FA_9277	NIMH-ChEFS
403.14	1	2	Incongruent	pII	FEAR	HAPPY	FEAR	0.679	1	F10FA_4434	NIMH-ChEFS
406.188	1	2	Congruent	n/a	HAPPY	HAPPY	HAPPY	1.218	1	F7HS_3986	NIMH-ChEFS
409.257	1	2.5	Congruent	n/a	HAPPY	HAPPY	FEAR	0.589	0	M12HS_7022	NIMH-ChEFS
412.811	1	3.5	Incongruent	pCI	FEAR	HAPPY	no_resp	-0.099	0	M7FS_5530	NIMH-ChEFS
417.351	1	4	Incongruent	pII	HAPPY	FEAR	FEAR	0.81	0	F21HA_6550	NIMH-ChEFS
422.422	1	3	Congruent	n/a	HAPPY	HAPPY	HAPPY	0.649	1	M17HA_8742	NIMH-ChEFS
426.492	1	3.5	Congruent	n/a	FEAR	FEAR	FEAR	0.944	1	F39FS_9475	NIMH-ChEFS
431.063	1	3	Incongruent	pCI	HAPPY	FEAR	HAPPY	1.059	1	M11HA_6890	NIMH-ChEFS
435.135	1	2	Incongruent	pII	FEAR	HAPPY	FEAR	0.939	1	F19FA_6353	NIMH-ChEFS
438.205	1	4	Congruent	n/a	FEAR	FEAR	FEAR	1.201	1	M15FA_8374	NIMH-ChEFS
443.274	1	2.5	Congruent	n/a	HAPPY	HAPPY	HAPPY	0.892	1	F13HS_5255	NIMH-ChEFS
446.819	1	3.5	Incongruent	pCI	HAPPY	FEAR	FEAR	1.389	0	M20HS_9191	NIMH-ChEFS
451.392	1	2	Incongruent	pII	FEAR	HAPPY	FEAR	0.839	1	M6FS_5422	NIMH-ChEFS
454.462	1	4	Congruent	n/a	HAPPY	HAPPY	HAPPY	0.926	1	F16HA_5934	NIMH-ChEFS
459.53	1	2.5	Congruent	n/a	FEAR	FEAR	FEAR	0.617	1	M18FA_8913	NIMH-ChEFS
463.097	1	3	Incongruent	pCI	HAPPY	FEAR	HAPPY	0.67	1	F39HS_9426	NIMH-ChEFS
467.139	1	2.5	Incongruent	pII	FEAR	HAPPY	FEAR	0.531	1	F3FS_3596	NIMH-ChEFS
470.69	1	4	Congruent	n/a	FEAR	FEAR	FEAR	1.186	1	M8FS_5869	NIMH-ChEFS
475.759	1	3.5	Congruent	n/a	HAPPY	HAPPY	HAPPY	0.934	1	M4HS_4862	NIMH-ChEFS
480.327	1	2	Incongruent	pCI	HAPPY	FEAR	FEAR	0.537	0	F2HA_3451	NIMH-ChEFS
483.393	1	3	Incongruent	pII	HAPPY	FEAR	HAPPY	1.31	1	M10HA_6772	NIMH-ChEFS
487.454	1	4	Congruent	n/a	FEAR	FEAR	FEAR	0.744	1	F18FS_6229	NIMH-ChEFS
492.527	1	3.5	Congruent	n/a	HAPPY	HAPPY	HAPPY	0.673	1	F31HS_8581	NIMH-ChEFS
497.073	1	2.5	Incongruent	pCI	FEAR	HAPPY	FEAR	0.944	1	M12FA_7082	NIMH-ChEFS
500.64	1	3	Incongruent	pII	HAPPY	FEAR	HAPPY	0.864	1	F12HA_5004	NIMH-ChEFS
504.684	1	2	Congruent	n/a	FEAR	FEAR	FEAR	0.514	1	F6FA_3922	NIMH-ChEFS
507.729	1	2.5	Congruent	n/a	HAPPY	HAPPY	HAPPY	0.661	1	M5HS_5134	NIMH-ChEFS
511.296	1	3	Incongruent	pCI	HAPPY	FEAR	HAPPY	0.797	1	M14HS_7912	NIMH-ChEFS
515.368	1	3.5	Incongruent	pII	FEAR	HAPPY	FEAR	1.263	1	F32FS_8041	NIMH-ChEFS
519.912	1	2	Congruent	n/a	FEAR	FEAR	FEAR	0.612	1	M19FA_9129	NIMH-ChEFS
522.982	1	4	Congruent	n/a	HAPPY	HAPPY	HAPPY	0.791	1	F34HS_8209	NIMH-ChEFS
528.052	1	4	Incongruent	pCI	HAPPY	FEAR	FEAR	0.781	0	M18HA_8854	NIMH-ChEFS
533.122	1	2	Incongruent	pII	FEAR	HAPPY	HAPPY	0.731	0	F16FA_5992	NIMH-ChEFS
536.191	1	2.5	Congruent	n/a	FEAR	FEAR	FEAR	0.87	1	F37FS_9007	NIMH-ChEFS
539.762	1	3.5	Congruent	n/a	HAPPY	HAPPY	no_resp	-0.099	0	M3HA_4707	NIMH-ChEFS
544.304	1	3	Incongruent	pCI	FEAR	HAPPY	FEAR	1.046	1	M15FS_8364	NIMH-ChEFS
548.349	1	3.5	Incongruent	pII	FEAR	HAPPY	FEAR	1.417	1	F13FA_5314	NIMH-ChEFS
552.915	1	4	Congruent	n/a	HAPPY	HAPPY	HAPPY	1.054	1	F14HA_5595	NIMH-ChEFS
557.98	1	2	Congruent	n/a	FEAR	FEAR	FEAR	1.417	1	M5FA_5198	NIMH-ChEFS
561.024	1	3	Incongruent	pCI	FEAR	HAPPY	HAPPY	0.571	0	F2FA_3491	NIMH-ChEFS
565.095	1	2.5	Incongruent	pII	HAPPY	FEAR	no_resp	-0.099	0	F23HS_7148	NIMH-ChEFS
568.636	1	3	Congruent	n/a	FEAR	FEAR	FEAR	1.224	1	M18FS_8888	NIMH-ChEFS
572.685	1	2.5	Congruent	n/a	HAPPY	HAPPY	HAPPY	1.009	1	F30HA_8500	NIMH-ChEFS
576.253	1	2	Incongruent	pCI	HAPPY	FEAR	HAPPY	1.344	1	M7HS_5497	NIMH-ChEFS
579.323	1	3.5	Incongruent	pII	FEAR	HAPPY	FEAR	1.135	1	F14FS_5632	NIMH-ChEFS
583.87	1	4	Congruent	n/a	HAPPY	HAPPY	FEAR	0.687	0	M2HA_4506	NIMH-ChEFS
588.915	1	3	Congruent	n/a	FEAR	FEAR	FEAR	0.489	1	F21FA_6608	NIMH-ChEFS
592.962	1	4	Incongruent	pCI	HAPPY	FEAR	HAPPY	1.274	1	F6HS_3875	NIMH-ChEFS
598.031	1	3.5	Incongruent	pII	HAPPY	FEAR	FEAR	1.059	0	M19HS_9059	NIMH-ChEFS
602.575	1	2	Congruent	n/a	FEAR	FEAR	FEAR	1.076	1	F4FS_3704	NIMH-ChEFS
605.643	1	2.5	Congruent	n/a	HAPPY	HAPPY	no_resp	-0.099	0	F32HA_7998	NIMH-ChEFS
609.185	1	4	Incongruent	pCI	HAPPY	FEAR	HAPPY	0.936	1	M6HA_5360	NIMH-ChEFS
614.233	1	3.5	Incongruent	pII	FEAR	HAPPY	HAPPY	0.783	0	M16FA_8681	NIMH-ChEFS
618.777	1	2	Congruent	n/a	HAPPY	HAPPY	HAPPY	0.892	1	F19HS_6297	NIMH-ChEFS
621.821	1	3	Congruent	n/a	FEAR	FEAR	no_resp	-0.099	0	F35FA_8465	NIMH-ChEFS
625.863	1	2.5	Incongruent	pCI	FEAR	HAPPY	HAPPY	1.178	0	M4FS_4935	NIMH-ChEFS
629.429	1	3.5	Incongruent	pII	HAPPY	FEAR	HAPPY	0.786	1	F37HS_8954	NIMH-ChEFS
634.001	1	2.5	Congruent	n/a	FEAR	FEAR	HAPPY	1.22	0	F30FS_8546	NIMH-ChEFS
637.57	1	4	Congruent	n/a	HAPPY	HAPPY	HAPPY	0.736	1	M9HS_6054	NIMH-ChEFS
642.613	1	2	Incongruent	pCI	FEAR	HAPPY	FEAR	0.359	1	F31FA_7873	NIMH-ChEFS
645.68	1	3	Incongruent	pII	HAPPY	FEAR	HAPPY	0.63	1	F4HA_3668	NIMH-ChEFS
649.748	1	2	Congruent	n/a	HAPPY	HAPPY	HAPPY	0.469	1	M15HA_8321	NIMH-ChEFS
652.792	1	4	Incongruent	pCI	HAPPY	FEAR	FEAR	0.378	0	F3HS_3540	NIMH-ChEFS
657.837	1	3.5	Incongruent	pII	FEAR	HAPPY	HAPPY	0.529	0	M20FS_9236	NIMH-ChEFS
