onset	duration	interstimulus_interval	trial_type	trial_type_2	target_condition	distractor	response	response_time	correct	identifier	database
0.056	1	3.5	Congruent	n/a	FEAR	FEAR	FEAR	1.129	1	M9FS_6104	NIMH-ChEFS
4.613	1	4	Congruent	n/a	HAPPY	HAPPY	HAPPY	0.484	1	F13HA_5265	NIMH-ChEFS
9.675	1	2	Incongruent	pCI	HAPPY	FEAR	FEAR	0.361	0	M4HA_4877	NIMH-ChEFS
12.754	1	2.5	Incongruent	pII	FEAR	HAPPY	FEAR	0.805	1	F7FS_4016	NIMH-ChEFS
16.309	1	3	Congruent	n/a	HAPPY	HAPPY	HAPPY	0.562	1	F30HS_8495	NIMH-ChEFS
20.36	1	4	Congruent	n/a	FEAR	FEAR	FEAR	0.647	1	M4FA_4941	NIMH-ChEFS
25.411	1	2	Incongruent	pCI	FEAR	HAPPY	FEAR	0.785	1	F32FA_8053	NIMH-ChEFS
28.461	1	3.5	Incongruent	pII	HAPPY	FEAR	HAPPY	0.46	1	M10HS_6767	NIMH-ChEFS
33.004	1	2.5	Congruent	n/a	HAPPY	HAPPY	FEAR	0.688	0	F23HA_7156	NIMH-ChEFS
36.555	1	3	Congruent	n/a	FEAR	FEAR	FEAR	0.831	1	F13FS_5292	NIMH-ChEFS
40.604	1	4	Incongruent	pCI	HAPPY	FEAR	HAPPY	0.678	1	F4HS_3664	NIMH-ChEFS
45.653	1	3	Incongruent	pII	HAPPY	FEAR	HAPPY	0.718	1	M20HA_9192	NIMH-ChEFS
49.7	1	2.5	Congruent	n/a	FEAR	FEAR	FEAR	0.547	1	F18FA_6243	NIMH-ChEFS
53.247	1	3.5	Congruent	n/a	HAPPY	HAPPY	HAPPY	0.52	1	M18HS_8848	NIMH-ChEFS
57.798	1	2	Incongruent	pCI	FEAR	HAPPY	FEAR	0.752	1	M14FS_7958	NIMH-ChEFS
60.84	1	4	Incongruent	pII	HAPPY	FEAR	HAPPY	0.665	1	F39HA_9433	NIMH-ChEFS
65.89	1	2.5	Congruent	n/a	FEAR	FEAR	FEAR	0.542	1	M10_FA_6823	NIMH-ChEFS
69.438	1	3.5	Congruent	n/a	HAPPY	HAPPY	HAPPY	0.511	1	F12HS_5000	NIMH-ChEFS
73.988	1	2	Incongruent	pCI	FEAR	HAPPY	FEAR	0.693	1	M17FA_8799	NIMH-ChEFS
77.039	1	3	Incongruent	pII	FEAR	HAPPY	FEAR	0.792	1	F2FS_3470	NIMH-ChEFS
81.091	1	2.5	Congruent	n/a	HAPPY	HAPPY	HAPPY	0.593	1	M14HA_7913	NIMH-ChEFS
84.641	1	2	Congruent	n/a	HAPPY	HAPPY	HAPPY	0.62	1	F7HA_3985	NIMH-ChEFS
87.689	1	4	Incongruent	pCI	FEAR	HAPPY	HAPPY	0.545	0	M2FS_4636	NIMH-ChEFS
92.738	1	3	Incongruent	pII	HAPPY	FEAR	HAPPY	0.784	1	F18HS_6186	NIMH-ChEFS
96.787	1	3.5	Congruent	n/a	FEAR	FEAR	FEAR	0.379	1	F39FA_9489	NIMH-ChEFS
101.338	1	2	Congruent	n/a	HAPPY	HAPPY	HAPPY	0.622	1	M2HS_4493	NIMH-ChEFS
104.386	1	3	Incongruent	pCI	HAPPY	FEAR	HAPPY	0.824	1	F1HA_3424	NIMH-ChEFS
108.44	1	3.5	Incongruent	pII	FEAR	HAPPY	FEAR	0.827	1	M6FA__5449	NIMH-ChEFS
112.987	1	2.5	Congruent	n/a	FEAR	FEAR	HAPPY	0.526	0	M19FS_9117	NIMH-ChEFS
116.535	1	4	Congruent	n/a	HAPPY	HAPPY	HAPPY	0.778	1	F35HS_8418	NIMH-ChEFS
121.585	1	3	Incongruent	pCI	FEAR	HAPPY	FEAR	0.803	1	F16FS_5978	NIMH-ChEFS
125.636	1	4	Incongruent	pII	FEAR	HAPPY	FEAR	0.791	1	M1FA_4336	NIMH-ChEFS
130.688	1	3.5	Congruent	n/a	HAPPY	HAPPY	HAPPY	0.968	1	M9HA_6057	NIMH-ChEFS
135.237	1	2.5	Congruent	n/a	FEAR	FEAR	FEAR	0.801	1	F4FA_3712	NIMH-ChEFS
138.786	1	2	Incongruent	pCI	HAPPY	FEAR	HAPPY	0.541	1	M15HS_8316	NIMH-ChEFS
141.836	1	2	Incongruent	pII	FEAR	HAPPY	FEAR	0.987	1	F21FS_6587	NIMH-ChEFS
144.885	1	4	Congruent	n/a	HAPPY	HAPPY	HAPPY	0.538	1	F19HA_6311	NIMH-ChEFS
149.935	1	3.5	Congruent	n/a	FEAR	FEAR	FEAR	0.542	1	M10_4FS_6817	NIMH-ChEFS
154.481	1	3	Incongruent	pCI	HAPPY	FEAR	HAPPY	0.328	1	F2HS_3448	NIMH-ChEFS
158.53	1	2.5	Incongruent	pII	HAPPY	FEAR	HAPPY	0.611	1	F10HA_4379	NIMH-ChEFS
162.079	1	4	Congruent	n/a	FEAR	FEAR	FEAR	0.7	1	M14FA_7960	NIMH-ChEFS
167.127	1	3	Congruent	n/a	FEAR	FEAR	HAPPY	0.373	0	F30FA_8552	NIMH-ChEFS
171.174	1	3.5	Incongruent	pCI	HAPPY	FEAR	HAPPY	0.769	1	M8HA_5828	NIMH-ChEFS
175.725	1	2	Incongruent	pII	FEAR	HAPPY	FEAR	0.875	1	F35FS_8451	NIMH-ChEFS
178.774	1	2.5	Congruent	n/a	HAPPY	HAPPY	HAPPY	0.709	1	M1HS_4301	NIMH-ChEFS
182.325	1	2.5	Congruent	n/a	FEAR	FEAR	FEAR	0.825	1	F37FA_9020	NIMH-ChEFS
185.877	1	3.5	Incongruent	pCI	FEAR	HAPPY	HAPPY	1.014	0	M11FS_6953	NIMH-ChEFS
190.425	1	3	Incongruent	pII	HAPPY	FEAR	HAPPY	0.716	1	F34HA_8219	NIMH-ChEFS
194.473	1	4	Congruent	n/a	FEAR	FEAR	HAPPY	0.697	0	F10FS_4426	NIMH-ChEFS
199.524	1	2	Congruent	n/a	HAPPY	HAPPY	HAPPY	0.703	1	M16HS_8633	NIMH-ChEFS
202.574	1	3	Incongruent	pCI	HAPPY	FEAR	HAPPY	0.799	1	M5HA_5140	NIMH-ChEFS
206.625	1	2	Incongruent	pII	FEAR	HAPPY	FEAR	0.575	1	F12FA_5062	NIMH-ChEFS
209.676	1	3.5	Congruent	n/a	HAPPY	HAPPY	HAPPY	1.109	1	F16HS_5924	NIMH-ChEFS
214.23	1	4	Congruent	n/a	FEAR	FEAR	FEAR	0.681	1	M2FA_4644	NIMH-ChEFS
219.279	1	2.5	Incongruent	pCI	FEAR	HAPPY	FEAR	0.709	1	M16FS_8676	NIMH-ChEFS
222.829	1	3.5	Incongruent	pII	HAPPY	FEAR	FEAR	0.68	0	F6HA_3882	NIMH-ChEFS
227.377	1	4	Congruent	n/a	FEAR	FEAR	FEAR	0.852	1	F19FS_6344	NIMH-ChEFS
232.425	1	2.5	Congruent	n/a	FEAR	FEAR	FEAR	0.78	1	M8FA_5885	NIMH-ChEFS
235.972	1	2	Incongruent	pCI	HAPPY	FEAR	HAPPY	0.984	1	F32HS_7996	NIMH-ChEFS
239.015	1	3	Incongruent	pII	HAPPY	FEAR	HAPPY	0.751	1	M19HA_9066	NIMH-ChEFS
243.06	1	2.5	Congruent	n/a	FEAR	FEAR	HAPPY	0.695	0	M3FS_4775	NIMH-ChEFS
246.61	1	4	Congruent	n/a	HAPPY	HAPPY	HAPPY	0.709	1	F3HA_3545	NIMH-ChEFS
251.66	1	3	Incongruent	pCI	FEAR	HAPPY	FEAR	0.668	1	M9FA_6121	NIMH-ChEFS
255.708	1	2	Incongruent	pII	FEAR	HAPPY	HAPPY	0.944	0	F14FA_5638	NIMH-ChEFS
258.758	1	3.5	Congruent	n/a	HAPPY	HAPPY	FEAR	0.719	0	M6HS_5354	NIMH-ChEFS
263.308	1	2.5	Congruent	n/a	HAPPY	HAPPY	HAPPY	0.856	1	F21HS_6544	NIMH-ChEFS
266.856	1	2	Incongruent	pCI	FEAR	HAPPY	FEAR	0.9	1	M17FS_8783	NIMH-ChEFS
269.907	1	3	Incongruent	pII	HAPPY	FEAR	HAPPY	0.673	1	F37HA_8965	NIMH-ChEFS
273.957	1	3.5	Congruent	n/a	HAPPY	HAPPY	FEAR	0.62	0	M12HA_7030	NIMH-ChEFS
278.506	1	4	Congruent	n/a	FEAR	FEAR	FEAR	0.755	1	F31FS_7861	NIMH-ChEFS
283.558	1	2	Incongruent	pCI	FEAR	HAPPY	FEAR	0.954	1	F3FA_3605	NIMH-ChEFS
286.612	1	4	Incongruent	pII	HAPPY	FEAR	HAPPY	0.663	1	M3HS_4695	NIMH-ChEFS
291.665	1	3	Congruent	n/a	FEAR	FEAR	FEAR	0.878	1	M11FA_6969	NIMH-ChEFS
295.716	1	3.5	Congruent	n/a	HAPPY	HAPPY	HAPPY	0.478	1	F14HS_5590	NIMH-ChEFS
300.266	1	2.5	Incongruent	pCI	FEAR	HAPPY	FEAR	0.766	1	M12FS_7070	NIMH-ChEFS
303.816	1	3.5	Incongruent	pII	FEAR	HAPPY	FEAR	0.775	1	F6FS_3906	NIMH-ChEFS
308.365	1	2	Congruent	n/a	HAPPY	HAPPY	HAPPY	0.438	1	M7HA_5500	NIMH-ChEFS
311.415	1	4	Congruent	n/a	FEAR	FEAR	FEAR	0.897	1	F23FA_7228	NIMH-ChEFS
316.464	1	3	Incongruent	pCI	HAPPY	FEAR	FEAR	0.75	0	F31HA_8583	NIMH-ChEFS
320.514	1	2.5	Incongruent	pII	HAPPY	FEAR	HAPPY	0.954	1	M11HS_6885	NIMH-ChEFS
324.063	1	2.5	Congruent	n/a	FEAR	FEAR	FEAR	0.732	1	M3FA_4789	NIMH-ChEFS
327.612	1	2	Congruent	n/a	FEAR	FEAR	FEAR	0.697	1	F34FS_8257	NIMH-ChEFS
330.663	1	3	Incongruent	pCI	HAPPY	FEAR	HAPPY	1.119	1	M17HS_8732	NIMH-ChEFS
334.712	1	3.5	Incongruent	pII	FEAR	HAPPY	FEAR	0.761	1	F7FA_4040	NIMH-ChEFS
339.274	1	4	Congruent	n/a	HAPPY	HAPPY	HAPPY	0.414	1	F10HS_4372	NIMH-ChEFS
344.329	1	2	Congruent	n/a	FEAR	FEAR	FEAR	0.732	1	M1FS_4325	NIMH-ChEFS
347.378	1	3.5	Incongruent	pCI	FEAR	HAPPY	FEAR	1.147	1	M6_1FA_5445	NIMH-ChEFS
351.927	1	4	Incongruent	pII	HAPPY	FEAR	HAPPY	0.8	1	F35HA_8422	NIMH-ChEFS
356.977	1	3	Congruent	n/a	HAPPY	HAPPY	HAPPY	0.763	1	M16HA_8638	NIMH-ChEFS
361.05	1	2.5	Congruent	n/a	FEAR	FEAR	FEAR	0.615	1	F12FS_5036	NIMH-ChEFS
364.597	1	2	Incongruent	pCI	HAPPY	FEAR	HAPPY	0.681	1	F1HS_3423	NIMH-ChEFS
367.647	1	3.5	Incongruent	pII	FEAR	HAPPY	FEAR	0.805	1	M7FA_5539	NIMH-ChEFS
372.195	1	3	Congruent	n/a	FEAR	FEAR	FEAR	0.976	1	F34FA_8267	NIMH-ChEFS
376.242	1	2.5	Congruent	n/a	HAPPY	HAPPY	FEAR	1.005	0	M8HS_5817	NIMH-ChEFS
379.79	1	4	Incongruent	pCI	FEAR	HAPPY	HAPPY	0.692	0	F23FS_7205	NIMH-ChEFS
384.839	1	2.5	Incongruent	pII	HAPPY	FEAR	FEAR	0.716	0	M1HA_4302	NIMH-ChEFS
388.389	1	3	Congruent	n/a	FEAR	FEAR	HAPPY	0.713	0	M5FS_5188	NIMH-ChEFS
392.435	1	2	Congruent	n/a	HAPPY	HAPPY	HAPPY	0.586	1	F18HA_6193	NIMH-ChEFS
395.484	1	4	Incongruent	pCI	FEAR	HAPPY	FEAR	0.862	1	M20FA_9277	NIMH-ChEFS
400.535	1	3.5	Incongruent	pII	FEAR	HAPPY	FEAR	0.739	1	F10FA_4434	NIMH-ChEFS
405.085	1	3.5	Congruent	n/a	HAPPY	HAPPY	HAPPY	0.749	1	F7HS_3986	NIMH-ChEFS
409.637	1	2.5	Congruent	n/a	HAPPY	HAPPY	HAPPY	0.82	1	M12HS_7022	NIMH-ChEFS
413.187	1	3	Incongruent	pCI	FEAR	HAPPY	FEAR	0.919	1	M7FS_5530	NIMH-ChEFS
417.235	1	2	Incongruent	pII	HAPPY	FEAR	HAPPY	1.165	1	F21HA_6550	NIMH-ChEFS
420.282	1	4	Congruent	n/a	HAPPY	HAPPY	HAPPY	0.698	1	M17HA_8742	NIMH-ChEFS
425.329	1	3	Congruent	n/a	FEAR	FEAR	FEAR	0.693	1	F39FS_9475	NIMH-ChEFS
429.377	1	3.5	Incongruent	pCI	HAPPY	FEAR	HAPPY	0.523	1	M11HA_6890	NIMH-ChEFS
433.927	1	4	Incongruent	pII	FEAR	HAPPY	FEAR	0.764	1	F19FA_6353	NIMH-ChEFS
438.977	1	2.5	Congruent	n/a	FEAR	FEAR	FEAR	0.877	1	M15FA_8374	NIMH-ChEFS
442.529	1	2	Congruent	n/a	HAPPY	HAPPY	HAPPY	0.683	1	F13HS_5255	NIMH-ChEFS
445.578	1	2.5	Incongruent	pCI	HAPPY	FEAR	FEAR	0.613	0	M20HS_9191	NIMH-ChEFS
449.123	1	3	Incongruent	pII	FEAR	HAPPY	FEAR	0.75	1	M6FS_5422	NIMH-ChEFS
453.173	1	3.5	Congruent	n/a	HAPPY	HAPPY	HAPPY	0.594	1	F16HA_5934	NIMH-ChEFS
457.722	1	2	Congruent	n/a	FEAR	FEAR	FEAR	1.051	1	M18FA_8913	NIMH-ChEFS
460.769	1	4	Incongruent	pCI	HAPPY	FEAR	HAPPY	0.896	1	F39HS_9426	NIMH-ChEFS
465.82	1	4	Incongruent	pII	FEAR	HAPPY	HAPPY	0.595	0	F3FS_3596	NIMH-ChEFS
470.87	1	3	Congruent	n/a	FEAR	FEAR	FEAR	0.745	1	M8FS_5869	NIMH-ChEFS
474.922	1	2	Congruent	n/a	HAPPY	HAPPY	HAPPY	0.639	1	M4HS_4862	NIMH-ChEFS
477.971	1	3.5	Incongruent	pCI	HAPPY	FEAR	HAPPY	0.928	1	F2HA_3451	NIMH-ChEFS
482.522	1	2.5	Incongruent	pII	HAPPY	FEAR	FEAR	0.634	0	M10HA_6772	NIMH-ChEFS
486.071	1	4	Congruent	n/a	FEAR	FEAR	FEAR	0.943	1	F18FS_6229	NIMH-ChEFS
491.12	1	3.5	Congruent	n/a	HAPPY	HAPPY	HAPPY	0.798	1	F31HS_8581	NIMH-ChEFS
495.669	1	2	Incongruent	pCI	FEAR	HAPPY	FEAR	0.742	1	M12FA_7082	NIMH-ChEFS
498.719	1	3	Incongruent	pII	HAPPY	FEAR	FEAR	0.677	0	F12HA_5004	NIMH-ChEFS
502.769	1	2.5	Congruent	n/a	FEAR	FEAR	HAPPY	0.707	0	F6FA_3922	NIMH-ChEFS
506.315	1	2.5	Congruent	n/a	HAPPY	HAPPY	HAPPY	0.577	1	M5HS_5134	NIMH-ChEFS
509.861	1	2	Incongruent	pCI	HAPPY	FEAR	HAPPY	0.743	1	M14HS_7912	NIMH-ChEFS
512.91	1	3	Incongruent	pII	FEAR	HAPPY	FEAR	0.722	1	F32FS_8041	NIMH-ChEFS
516.959	1	3.5	Congruent	n/a	FEAR	FEAR	FEAR	0.68	1	M19FA_9129	NIMH-ChEFS
521.51	1	4	Congruent	n/a	HAPPY	HAPPY	HAPPY	0.77	1	F34HS_8209	NIMH-ChEFS
526.559	1	4	Incongruent	pCI	HAPPY	FEAR	HAPPY	0.656	1	M18HA_8854	NIMH-ChEFS
531.61	1	2.5	Incongruent	pII	FEAR	HAPPY	FEAR	0.659	1	F16FA_5992	NIMH-ChEFS
535.159	1	2	Congruent	n/a	FEAR	FEAR	FEAR	0.834	1	F37FS_9007	NIMH-ChEFS
538.211	1	3	Congruent	n/a	HAPPY	HAPPY	HAPPY	0.643	1	M3HA_4707	NIMH-ChEFS
542.26	1	3.5	Incongruent	pCI	FEAR	HAPPY	FEAR	0.669	1	M15FS_8364	NIMH-ChEFS
546.81	1	4	Incongruent	pII	FEAR	HAPPY	HAPPY	0.403	0	F13FA_5314	NIMH-ChEFS
551.866	1	3	Congruent	n/a	HAPPY	HAPPY	HAPPY	0.663	1	F14HA_5595	NIMH-ChEFS
555.913	1	2.5	Congruent	n/a	FEAR	FEAR	FEAR	0.659	1	M5FA_5198	NIMH-ChEFS
559.461	1	2	Incongruent	pCI	FEAR	HAPPY	HAPPY	0.603	0	F2FA_3491	NIMH-ChEFS
562.511	1	3.5	Incongruent	pII	HAPPY	FEAR	FEAR	0.755	0	F23HS_7148	NIMH-ChEFS
567.06	1	2.5	Congruent	n/a	FEAR	FEAR	FEAR	0.936	1	M18FS_8888	NIMH-ChEFS
570.61	1	3.5	Congruent	n/a	HAPPY	HAPPY	HAPPY	0.518	1	F30HA_8500	NIMH-ChEFS
575.161	1	4	Incongruent	pCI	HAPPY	FEAR	HAPPY	0.707	1	M7HS_5497	NIMH-ChEFS
580.213	1	3	Incongruent	pII	FEAR	HAPPY	HAPPY	0.55	0	F14FS_5632	NIMH-ChEFS
584.264	1	2	Congruent	n/a	HAPPY	HAPPY	HAPPY	0.779	1	M2HA_4506	NIMH-ChEFS
587.312	1	4	Congruent	n/a	FEAR	FEAR	FEAR	0.693	1	F21FA_6608	NIMH-ChEFS
592.363	1	3	Incongruent	pCI	HAPPY	FEAR	HAPPY	0.51	1	F6HS_3875	NIMH-ChEFS
596.406	1	3.5	Incongruent	pII	HAPPY	FEAR	FEAR	0.489	0	M19HS_9059	NIMH-ChEFS
600.947	1	2.5	Congruent	n/a	FEAR	FEAR	FEAR	0.755	1	F4FS_3704	NIMH-ChEFS
604.498	1	2	Congruent	n/a	HAPPY	HAPPY	HAPPY	0.534	1	F32HA_7998	NIMH-ChEFS
607.544	1	2.5	Incongruent	pCI	HAPPY	FEAR	HAPPY	0.599	1	M6HA_5360	NIMH-ChEFS
611.095	1	2	Incongruent	pII	FEAR	HAPPY	FEAR	0.459	1	M16FA_8681	NIMH-ChEFS
614.146	1	4	Congruent	n/a	HAPPY	HAPPY	HAPPY	0.569	1	F19HS_6297	NIMH-ChEFS
619.195	1	3	Congruent	n/a	FEAR	FEAR	FEAR	0.366	1	F35FA_8465	NIMH-ChEFS
623.245	1	3.5	Incongruent	pCI	FEAR	HAPPY	FEAR	0.768	1	M4FS_4935	NIMH-ChEFS
627.794	1	2	Incongruent	pII	HAPPY	FEAR	HAPPY	0.498	1	F37HS_8954	NIMH-ChEFS
630.842	1	2.5	Congruent	n/a	FEAR	FEAR	HAPPY	0.609	0	F30FS_8546	NIMH-ChEFS
634.393	1	3.5	Congruent	n/a	HAPPY	HAPPY	FEAR	0.707	0	M9HS_6054	NIMH-ChEFS
638.945	1	3	Incongruent	pCI	FEAR	HAPPY	HAPPY	0.472	0	F31FA_7873	NIMH-ChEFS
642.996	1	4	Incongruent	pII	HAPPY	FEAR	HAPPY	0.955	1	F4HA_3668	NIMH-ChEFS
648.045	1	2	Congruent	n/a	HAPPY	HAPPY	FEAR	0.783	0	M15HA_8321	NIMH-ChEFS
651.092	1	3.5	Incongruent	pCI	HAPPY	FEAR	HAPPY	0.675	1	F3HS_3540	NIMH-ChEFS
655.642	1	4	Incongruent	pII	FEAR	HAPPY	FEAR	0.676	1	M20FS_9236	NIMH-ChEFS
