onset	duration	interstimulus_interval	trial_type	trial_type_2	target_condition	distractor	response	response_time	correct	identifier	database
0.054	1	3	Congruent	n/a	FEAR	FEAR	FEAR	0.925	1	M9FS_6104	NIMH-ChEFS
4.133	1	4	Congruent	n/a	HAPPY	HAPPY	HAPPY	0.622	1	F13HA_5265	NIMH-ChEFS
9.212	1	2.5	Incongruent	pCI	HAPPY	FEAR	HAPPY	0.856	1	M4HA_4877	NIMH-ChEFS
12.794	1	2	Incongruent	pII	FEAR	HAPPY	FEAR	0.857	1	F7FS_4016	NIMH-ChEFS
15.864	1	3.5	Congruent	n/a	HAPPY	HAPPY	HAPPY	0.718	1	F30HS_8495	NIMH-ChEFS
20.431	1	2	Congruent	n/a	FEAR	FEAR	FEAR	0.723	1	M4FA_4941	NIMH-ChEFS
23.479	1	3.5	Incongruent	pCI	FEAR	HAPPY	FEAR	0.751	1	F32FA_8053	NIMH-ChEFS
28.025	1	3	Incongruent	pII	HAPPY	FEAR	HAPPY	0.803	1	M10HS_6767	NIMH-ChEFS
32.073	1	4	Congruent	n/a	HAPPY	HAPPY	HAPPY	0.861	1	F23HA_7156	NIMH-ChEFS
37.118	1	2.5	Congruent	n/a	FEAR	FEAR	FEAR	0.683	1	F13FS_5292	NIMH-ChEFS
40.685	1	3.5	Incongruent	pCI	HAPPY	FEAR	HAPPY	0.9	1	F4HS_3664	NIMH-ChEFS
45.233	1	2	Incongruent	pII	HAPPY	FEAR	HAPPY	1.149	1	M20HA_9192	NIMH-ChEFS
48.301	1	2.5	Congruent	n/a	FEAR	FEAR	FEAR	0.799	1	F18FA_6243	NIMH-ChEFS
51.846	1	3	Congruent	n/a	HAPPY	HAPPY	HAPPY	0.74	1	M18HS_8848	NIMH-ChEFS
55.894	1	4	Incongruent	pCI	FEAR	HAPPY	FEAR	0.914	1	M14FS_7958	NIMH-ChEFS
60.937	1	3	Incongruent	pII	HAPPY	FEAR	HAPPY	0.84	1	F39HA_9433	NIMH-ChEFS
64.98	1	4	Congruent	n/a	FEAR	FEAR	FEAR	1.185	1	M10_FA_6823	NIMH-ChEFS
70.027	1	3.5	Congruent	n/a	HAPPY	HAPPY	no_resp	-0.099	0	F12HS_5000	NIMH-ChEFS
74.571	1	2.5	Incongruent	pCI	FEAR	HAPPY	no_resp	-0.099	0	M17FA_8799	NIMH-ChEFS
78.114	1	2	Incongruent	pII	FEAR	HAPPY	FEAR	0.857	1	F2FS_3470	NIMH-ChEFS
81.161	1	2	Congruent	n/a	HAPPY	HAPPY	HAPPY	0.553	1	M14HA_7913	NIMH-ChEFS
84.232	1	3	Congruent	n/a	HAPPY	HAPPY	HAPPY	0.616	1	F7HA_3985	NIMH-ChEFS
88.303	1	4	Incongruent	pCI	FEAR	HAPPY	FEAR	0.701	1	M2FS_4636	NIMH-ChEFS
93.347	1	2.5	Incongruent	pII	HAPPY	FEAR	HAPPY	0.807	1	F18HS_6186	NIMH-ChEFS
96.892	1	3.5	Congruent	n/a	FEAR	FEAR	FEAR	0.97	1	F39FA_9489	NIMH-ChEFS
101.46	1	3	Congruent	n/a	HAPPY	HAPPY	HAPPY	0.616	1	M2HS_4493	NIMH-ChEFS
105.533	1	4	Incongruent	pCI	HAPPY	FEAR	HAPPY	0.728	1	F1HA_3424	NIMH-ChEFS
110.578	1	2	Incongruent	pII	FEAR	HAPPY	FEAR	0.782	1	M6FA__5449	NIMH-ChEFS
113.621	1	2.5	Congruent	n/a	FEAR	FEAR	FEAR	0.755	1	M19FS_9117	NIMH-ChEFS
117.192	1	3.5	Congruent	n/a	HAPPY	HAPPY	HAPPY	0.749	1	F35HS_8418	NIMH-ChEFS
121.735	1	2	Incongruent	pCI	FEAR	HAPPY	no_resp	-0.099	0	F16FS_5978	NIMH-ChEFS
124.777	1	3	Incongruent	pII	FEAR	HAPPY	FEAR	0.782	1	M1FA_4336	NIMH-ChEFS
128.847	1	2.5	Congruent	n/a	HAPPY	HAPPY	HAPPY	0.574	1	M9HA_6057	NIMH-ChEFS
132.417	1	4	Congruent	n/a	FEAR	FEAR	FEAR	0.681	1	F4FA_3712	NIMH-ChEFS
137.484	1	3.5	Incongruent	pCI	HAPPY	FEAR	HAPPY	0.406	1	M15HS_8316	NIMH-ChEFS
142.028	1	4	Incongruent	pII	FEAR	HAPPY	FEAR	0.599	1	F21FS_6587	NIMH-ChEFS
147.082	1	2	Congruent	n/a	HAPPY	HAPPY	HAPPY	0.889	1	F19HA_6311	NIMH-ChEFS
150.129	1	2.5	Congruent	n/a	FEAR	FEAR	FEAR	0.728	1	M10_4FS_6817	NIMH-ChEFS
153.695	1	3.5	Incongruent	pCI	HAPPY	FEAR	FEAR	0.966	0	F2HS_3448	NIMH-ChEFS
158.263	1	3	Incongruent	pII	HAPPY	FEAR	HAPPY	0.823	1	F10HA_4379	NIMH-ChEFS
162.307	1	3.5	Congruent	n/a	FEAR	FEAR	FEAR	0.663	1	M14FA_7960	NIMH-ChEFS
166.877	1	4	Congruent	n/a	FEAR	FEAR	FEAR	0.727	1	F30FA_8552	NIMH-ChEFS
171.944	1	2.5	Incongruent	pCI	HAPPY	FEAR	HAPPY	0.807	1	M8HA_5828	NIMH-ChEFS
175.513	1	2	Incongruent	pII	FEAR	HAPPY	FEAR	0.751	1	F35FS_8451	NIMH-ChEFS
178.582	1	3	Congruent	n/a	HAPPY	HAPPY	HAPPY	0.863	1	M1HS_4301	NIMH-ChEFS
182.651	1	2.5	Congruent	n/a	FEAR	FEAR	HAPPY	1.295	0	F37FA_9020	NIMH-ChEFS
186.196	1	3.5	Incongruent	pCI	FEAR	HAPPY	FEAR	0.971	1	M11FS_6953	NIMH-ChEFS
190.763	1	2	Incongruent	pII	HAPPY	FEAR	HAPPY	0.723	1	F34HA_8219	NIMH-ChEFS
193.829	1	4	Congruent	n/a	FEAR	FEAR	no_resp	-0.099	0	F10FS_4426	NIMH-ChEFS
198.871	1	3	Congruent	n/a	HAPPY	HAPPY	HAPPY	0.576	1	M16HS_8633	NIMH-ChEFS
202.938	1	2	Incongruent	pCI	HAPPY	FEAR	HAPPY	0.766	1	M5HA_5140	NIMH-ChEFS
206.009	1	4	Incongruent	pII	FEAR	HAPPY	FEAR	0.558	1	F12FA_5062	NIMH-ChEFS
211.05	1	3.5	Congruent	n/a	HAPPY	HAPPY	HAPPY	0.667	1	F16HS_5924	NIMH-ChEFS
215.621	1	3	Congruent	n/a	FEAR	FEAR	FEAR	0.654	1	M2FA_4644	NIMH-ChEFS
219.693	1	2.5	Incongruent	pCI	FEAR	HAPPY	FEAR	0.95	1	M16FS_8676	NIMH-ChEFS
223.264	1	3	Incongruent	pII	HAPPY	FEAR	HAPPY	0.612	1	F6HA_3882	NIMH-ChEFS
227.308	1	2	Congruent	n/a	FEAR	FEAR	FEAR	1.408	1	F19FS_6344	NIMH-ChEFS
230.371	1	3.5	Congruent	n/a	FEAR	FEAR	FEAR	0.591	1	M8FA_5885	NIMH-ChEFS
234.94	1	4	Incongruent	pCI	HAPPY	FEAR	no_resp	-0.099	0	F32HS_7996	NIMH-ChEFS
239.981	1	2.5	Incongruent	pII	HAPPY	FEAR	HAPPY	0.786	1	M19HA_9066	NIMH-ChEFS
243.549	1	2	Congruent	n/a	FEAR	FEAR	FEAR	0.74	1	M3FS_4775	NIMH-ChEFS
246.621	1	4	Congruent	n/a	HAPPY	HAPPY	HAPPY	0.697	1	F3HA_3545	NIMH-ChEFS
251.688	1	3.5	Incongruent	pCI	FEAR	HAPPY	HAPPY	0.946	0	M9FA_6121	NIMH-ChEFS
256.258	1	3	Incongruent	pII	FEAR	HAPPY	FEAR	1.016	1	F14FA_5638	NIMH-ChEFS
260.306	1	2.5	Congruent	n/a	HAPPY	HAPPY	HAPPY	0.701	1	M6HS_5354	NIMH-ChEFS
263.877	1	3.5	Congruent	n/a	HAPPY	HAPPY	HAPPY	0.718	1	F21HS_6544	NIMH-ChEFS
268.446	1	2	Incongruent	pCI	FEAR	HAPPY	FEAR	0.799	1	M17FS_8783	NIMH-ChEFS
271.515	1	2.5	Incongruent	pII	HAPPY	FEAR	no_resp	-0.099	0	F37HA_8965	NIMH-ChEFS
275.06	1	4	Congruent	n/a	HAPPY	HAPPY	HAPPY	0.835	1	M12HA_7030	NIMH-ChEFS
280.103	1	3	Congruent	n/a	FEAR	FEAR	FEAR	0.877	1	F31FS_7861	NIMH-ChEFS
284.149	1	4	Incongruent	pCI	FEAR	HAPPY	no_resp	-0.099	0	F3FA_3605	NIMH-ChEFS
289.191	1	2	Incongruent	pII	HAPPY	FEAR	HAPPY	0.72	1	M3HS_4695	NIMH-ChEFS
292.261	1	2.5	Congruent	n/a	FEAR	FEAR	FEAR	0.926	1	M11FA_6969	NIMH-ChEFS
295.834	1	3.5	Congruent	n/a	HAPPY	HAPPY	HAPPY	0.961	1	F14HS_5590	NIMH-ChEFS
300.404	1	3	Incongruent	pCI	FEAR	HAPPY	FEAR	1.038	1	M12FS_7070	NIMH-ChEFS
304.476	1	2	Incongruent	pII	FEAR	HAPPY	FEAR	0.724	1	F6FS_3906	NIMH-ChEFS
307.519	1	3.5	Congruent	n/a	HAPPY	HAPPY	HAPPY	0.622	1	M7HA_5500	NIMH-ChEFS
312.064	1	3	Congruent	n/a	FEAR	FEAR	FEAR	0.751	1	F23FA_7228	NIMH-ChEFS
316.11	1	2.5	Incongruent	pCI	HAPPY	FEAR	HAPPY	0.755	1	F31HA_8583	NIMH-ChEFS
319.676	1	4	Incongruent	pII	HAPPY	FEAR	HAPPY	0.842	1	M11HS_6885	NIMH-ChEFS
324.748	1	4	Congruent	n/a	FEAR	FEAR	FEAR	0.731	1	M3FA_4789	NIMH-ChEFS
329.814	1	3	Congruent	n/a	FEAR	FEAR	FEAR	1.169	1	F34FS_8257	NIMH-ChEFS
333.88	1	3.5	Incongruent	pCI	HAPPY	FEAR	HAPPY	0.736	1	M17HS_8732	NIMH-ChEFS
338.438	1	2.5	Incongruent	pII	FEAR	HAPPY	FEAR	0.88	1	F7FA_4040	NIMH-ChEFS
342.011	1	2	Congruent	n/a	HAPPY	HAPPY	HAPPY	1.087	1	F10HS_4372	NIMH-ChEFS
345.079	1	2	Congruent	n/a	FEAR	FEAR	FEAR	0.985	1	M1FS_4325	NIMH-ChEFS
348.148	1	3	Incongruent	pCI	FEAR	HAPPY	FEAR	0.857	1	M6_1FA_5445	NIMH-ChEFS
352.189	1	2.5	Incongruent	pII	HAPPY	FEAR	HAPPY	0.916	1	F35HA_8422	NIMH-ChEFS
355.76	1	4	Congruent	n/a	HAPPY	HAPPY	HAPPY	1.115	1	M16HA_8638	NIMH-ChEFS
360.829	1	3.5	Congruent	n/a	FEAR	FEAR	FEAR	0.906	1	F12FS_5036	NIMH-ChEFS
365.376	1	3.5	Incongruent	pCI	HAPPY	FEAR	HAPPY	0.907	1	F1HS_3423	NIMH-ChEFS
369.948	1	2	Incongruent	pII	FEAR	HAPPY	FEAR	1.08	1	M7FA_5539	NIMH-ChEFS
373.016	1	2.5	Congruent	n/a	FEAR	FEAR	FEAR	0.817	1	F34FA_8267	NIMH-ChEFS
376.564	1	3	Congruent	n/a	HAPPY	HAPPY	HAPPY	0.479	1	M8HS_5817	NIMH-ChEFS
380.636	1	4	Incongruent	pCI	FEAR	HAPPY	FEAR	0.982	1	F23FS_7205	NIMH-ChEFS
385.705	1	2	Incongruent	pII	HAPPY	FEAR	HAPPY	0.649	1	M1HA_4302	NIMH-ChEFS
388.774	1	4	Congruent	n/a	FEAR	FEAR	FEAR	0.706	1	M5FS_5188	NIMH-ChEFS
393.846	1	3.5	Congruent	n/a	HAPPY	HAPPY	HAPPY	0.847	1	F18HA_6193	NIMH-ChEFS
398.414	1	2.5	Incongruent	pCI	FEAR	HAPPY	FEAR	0.807	1	M20FA_9277	NIMH-ChEFS
401.984	1	3	Incongruent	pII	FEAR	HAPPY	HAPPY	1.124	0	F10FA_4434	NIMH-ChEFS
406.053	1	3.5	Congruent	n/a	HAPPY	HAPPY	HAPPY	0.703	1	F7HS_3986	NIMH-ChEFS
410.625	1	3	Congruent	n/a	HAPPY	HAPPY	FEAR	1.013	0	M12HS_7022	NIMH-ChEFS
414.678	1	2	Incongruent	pCI	FEAR	HAPPY	no_resp	-0.099	0	M7FS_5530	NIMH-ChEFS
417.721	1	2.5	Incongruent	pII	HAPPY	FEAR	HAPPY	0.985	1	F21HA_6550	NIMH-ChEFS
421.275	1	4	Congruent	n/a	HAPPY	HAPPY	HAPPY	1.018	1	M17HA_8742	NIMH-ChEFS
426.318	1	3.5	Congruent	n/a	FEAR	FEAR	FEAR	0.769	1	F39FS_9475	NIMH-ChEFS
430.887	1	4	Incongruent	pCI	HAPPY	FEAR	HAPPY	0.922	1	M11HA_6890	NIMH-ChEFS
435.954	1	3	Incongruent	pII	FEAR	HAPPY	FEAR	0.921	1	F19FA_6353	NIMH-ChEFS
440.024	1	2.5	Congruent	n/a	FEAR	FEAR	FEAR	1.045	1	M15FA_8374	NIMH-ChEFS
443.594	1	2	Congruent	n/a	HAPPY	HAPPY	HAPPY	1.02	1	F13HS_5255	NIMH-ChEFS
446.662	1	3.5	Incongruent	pCI	HAPPY	FEAR	HAPPY	0.864	1	M20HS_9191	NIMH-ChEFS
451.23	1	4	Incongruent	pII	FEAR	HAPPY	FEAR	0.877	1	M6FS_5422	NIMH-ChEFS
456.303	1	2.5	Congruent	n/a	HAPPY	HAPPY	HAPPY	0.85	1	F16HA_5934	NIMH-ChEFS
459.87	1	3	Congruent	n/a	FEAR	FEAR	FEAR	0.747	1	M18FA_8913	NIMH-ChEFS
463.939	1	2	Incongruent	pCI	HAPPY	FEAR	no_resp	-0.099	0	F39HS_9426	NIMH-ChEFS
466.983	1	3.5	Incongruent	pII	FEAR	HAPPY	FEAR	0.598	1	F3FS_3596	NIMH-ChEFS
471.53	1	2	Congruent	n/a	FEAR	FEAR	no_resp	-0.099	0	M8FS_5869	NIMH-ChEFS
474.574	1	2.5	Congruent	n/a	HAPPY	HAPPY	HAPPY	0.61	1	M4HS_4862	NIMH-ChEFS
478.123	1	3	Incongruent	pCI	HAPPY	FEAR	HAPPY	0.967	1	F2HA_3451	NIMH-ChEFS
482.194	1	4	Incongruent	pII	HAPPY	FEAR	HAPPY	0.904	1	M10HA_6772	NIMH-ChEFS
487.265	1	2	Congruent	n/a	FEAR	FEAR	FEAR	0.814	1	F18FS_6229	NIMH-ChEFS
490.335	1	2.5	Congruent	n/a	HAPPY	HAPPY	HAPPY	0.718	1	F31HS_8581	NIMH-ChEFS
493.904	1	3	Incongruent	pCI	FEAR	HAPPY	FEAR	1.04	1	M12FA_7082	NIMH-ChEFS
497.973	1	3.5	Incongruent	pII	HAPPY	FEAR	FEAR	1.158	0	F12HA_5004	NIMH-ChEFS
502.52	1	4	Congruent	n/a	FEAR	FEAR	FEAR	2.171	1	F6FA_3922	NIMH-ChEFS
507.567	1	4	Congruent	n/a	HAPPY	HAPPY	HAPPY	0.943	1	M5HS_5134	NIMH-ChEFS
512.636	1	2.5	Incongruent	pCI	HAPPY	FEAR	FEAR	0.951	0	M14HS_7912	NIMH-ChEFS
516.209	1	2	Incongruent	pII	FEAR	HAPPY	FEAR	0.976	1	F32FS_8041	NIMH-ChEFS
519.277	1	3	Congruent	n/a	FEAR	FEAR	FEAR	0.91	1	M19FA_9129	NIMH-ChEFS
523.346	1	3.5	Congruent	n/a	HAPPY	HAPPY	HAPPY	0.858	1	F34HS_8209	NIMH-ChEFS
527.913	1	3	Incongruent	pCI	HAPPY	FEAR	HAPPY	0.945	1	M18HA_8854	NIMH-ChEFS
531.979	1	3.5	Incongruent	pII	FEAR	HAPPY	no_resp	-0.099	0	F16FA_5992	NIMH-ChEFS
536.522	1	4	Congruent	n/a	FEAR	FEAR	FEAR	0.853	1	F37FS_9007	NIMH-ChEFS
541.569	1	2.5	Congruent	n/a	HAPPY	HAPPY	no_resp	-0.099	0	M3HA_4707	NIMH-ChEFS
545.114	1	2	Incongruent	pCI	FEAR	HAPPY	no_resp	-0.099	0	M15FS_8364	NIMH-ChEFS
548.158	1	3.5	Incongruent	pII	FEAR	HAPPY	FEAR	0.892	1	F13FA_5314	NIMH-ChEFS
552.726	1	2	Congruent	n/a	HAPPY	HAPPY	HAPPY	0.769	1	F14HA_5595	NIMH-ChEFS
555.772	1	3	Congruent	n/a	FEAR	FEAR	no_resp	-0.099	0	M5FA_5198	NIMH-ChEFS
559.817	1	4	Incongruent	pCI	FEAR	HAPPY	FEAR	1.038	1	F2FA_3491	NIMH-ChEFS
564.884	1	2.5	Incongruent	pII	HAPPY	FEAR	HAPPY	0.863	1	F23HS_7148	NIMH-ChEFS
568.431	1	3	Congruent	n/a	FEAR	FEAR	no_resp	-0.099	0	M18FS_8888	NIMH-ChEFS
572.473	1	2	Congruent	n/a	HAPPY	HAPPY	HAPPY	0.751	1	F30HA_8500	NIMH-ChEFS
575.542	1	2.5	Incongruent	pCI	HAPPY	FEAR	HAPPY	1.556	1	M7HS_5497	NIMH-ChEFS
579.088	1	3.5	Incongruent	pII	FEAR	HAPPY	no_resp	-0.099	0	F14FS_5632	NIMH-ChEFS
583.638	1	4	Congruent	n/a	HAPPY	HAPPY	HAPPY	1.01	1	M2HA_4506	NIMH-ChEFS
588.686	1	2	Congruent	n/a	FEAR	FEAR	FEAR	0.968	1	F21FA_6608	NIMH-ChEFS
591.756	1	3.5	Incongruent	pCI	HAPPY	FEAR	HAPPY	0.931	1	F6HS_3875	NIMH-ChEFS
596.326	1	2.5	Incongruent	pII	HAPPY	FEAR	HAPPY	0.888	1	M19HS_9059	NIMH-ChEFS
599.883	1	3	Congruent	n/a	FEAR	FEAR	no_resp	-0.099	0	F4FS_3704	NIMH-ChEFS
603.926	1	4	Congruent	n/a	HAPPY	HAPPY	HAPPY	1.09	1	F32HA_7998	NIMH-ChEFS
608.995	1	3	Incongruent	pCI	HAPPY	FEAR	no_resp	-0.099	0	M6HA_5360	NIMH-ChEFS
613.038	1	4	Incongruent	pII	FEAR	HAPPY	FEAR	0.976	1	M16FA_8681	NIMH-ChEFS
618.107	1	3.5	Congruent	n/a	HAPPY	HAPPY	HAPPY	0.749	1	F19HS_6297	NIMH-ChEFS
622.653	1	2.5	Congruent	n/a	FEAR	FEAR	FEAR	1.037	1	F35FA_8465	NIMH-ChEFS
626.222	1	2	Incongruent	pCI	FEAR	HAPPY	no_resp	-0.099	0	M4FS_4935	NIMH-ChEFS
629.264	1	4	Incongruent	pII	HAPPY	FEAR	HAPPY	1.059	1	F37HS_8954	NIMH-ChEFS
634.333	1	2.5	Congruent	n/a	FEAR	FEAR	no_resp	-0.099	0	F30FS_8546	NIMH-ChEFS
637.878	1	3.5	Congruent	n/a	HAPPY	HAPPY	HAPPY	0.717	1	M9HS_6054	NIMH-ChEFS
642.425	1	2	Incongruent	pCI	FEAR	HAPPY	no_resp	-0.099	0	F31FA_7873	NIMH-ChEFS
645.467	1	3	Incongruent	pII	HAPPY	FEAR	HAPPY	0.786	1	F4HA_3668	NIMH-ChEFS
649.513	1	2	Congruent	n/a	HAPPY	HAPPY	HAPPY	1.172	1	M15HA_8321	NIMH-ChEFS
652.561	1	2.5	Incongruent	pCI	HAPPY	FEAR	no_resp	-0.099	0	F3HS_3540	NIMH-ChEFS
656.105	1	3	Incongruent	pII	FEAR	HAPPY	FEAR	0.715	1	M20FS_9236	NIMH-ChEFS
