onset	duration	interstimulus_interval	trial_type	trial_type_2	target_condition	distractor	response	response_time	correct	identifier	database
0.066	1	3.5	Congruent	n/a	FEAR	FEAR	FEAR	3.962	1	M9FS_6104	NIMH-ChEFS
4.643	1	2	Congruent	n/a	HAPPY	HAPPY	FEAR	0.865	0	F13HA_5265	NIMH-ChEFS
7.722	1	2.5	Incongruent	pCI	HAPPY	FEAR	FEAR	0.95	0	M4HA_4877	NIMH-ChEFS
11.306	1	3	Incongruent	pII	FEAR	HAPPY	FEAR	0.831	1	F7FS_4016	NIMH-ChEFS
15.355	1	4	Congruent	n/a	HAPPY	HAPPY	HAPPY	0.768	1	F30HS_8495	NIMH-ChEFS
20.423	1	2.5	Congruent	n/a	FEAR	FEAR	HAPPY	1.067	0	M4FA_4941	NIMH-ChEFS
23.966	1	2	Incongruent	pCI	FEAR	HAPPY	HAPPY	0.796	0	F32FA_8053	NIMH-ChEFS
27.008	1	4	Incongruent	pII	HAPPY	FEAR	FEAR	0.902	0	M10HS_6767	NIMH-ChEFS
32.055	1	3.5	Congruent	n/a	HAPPY	HAPPY	FEAR	0.902	0	F23HA_7156	NIMH-ChEFS
36.624	1	3	Congruent	n/a	FEAR	FEAR	HAPPY	0.748	0	F13FS_5292	NIMH-ChEFS
40.691	1	3.5	Incongruent	pCI	HAPPY	FEAR	FEAR	0.952	0	F4HS_3664	NIMH-ChEFS
45.261	1	4	Incongruent	pII	HAPPY	FEAR	FEAR	1.258	0	M20HA_9192	NIMH-ChEFS
50.33	1	3	Congruent	n/a	FEAR	FEAR	HAPPY	0.861	0	F18FA_6243	NIMH-ChEFS
54.4	1	2.5	Congruent	n/a	HAPPY	HAPPY	FEAR	0.49	0	M18HS_8848	NIMH-ChEFS
57.97	1	2	Incongruent	pCI	FEAR	HAPPY	HAPPY	0.936	0	M14FS_7958	NIMH-ChEFS
61.04	1	2.5	Incongruent	pII	HAPPY	FEAR	FEAR	1.075	0	F39HA_9433	NIMH-ChEFS
64.607	1	2	Congruent	n/a	FEAR	FEAR	HAPPY	1.206	0	M10_FA_6823	NIMH-ChEFS
67.675	1	3	Congruent	n/a	HAPPY	HAPPY	FEAR	0.559	0	F12HS_5000	NIMH-ChEFS
71.745	1	3.5	Incongruent	pCI	FEAR	HAPPY	HAPPY	0.692	0	M17FA_8799	NIMH-ChEFS
76.314	1	4	Incongruent	pII	FEAR	HAPPY	HAPPY	0.855	0	F2FS_3470	NIMH-ChEFS
81.382	1	3	Congruent	n/a	HAPPY	HAPPY	FEAR	0.619	0	M14HA_7913	NIMH-ChEFS
85.43	1	2.5	Congruent	n/a	HAPPY	HAPPY	FEAR	0.939	0	F7HA_3985	NIMH-ChEFS
89	1	2	Incongruent	pCI	FEAR	HAPPY	FEAR	0.794	1	M2FS_4636	NIMH-ChEFS
92.053	1	4	Incongruent	pII	HAPPY	FEAR	FEAR	0.781	0	F18HS_6186	NIMH-ChEFS
97.097	1	3.5	Congruent	n/a	FEAR	FEAR	HAPPY	0.581	0	F39FA_9489	NIMH-ChEFS
101.666	1	2.5	Congruent	n/a	HAPPY	HAPPY	FEAR	0.785	0	M2HS_4493	NIMH-ChEFS
105.232	1	3	Incongruent	pCI	HAPPY	FEAR	FEAR	0.738	0	F1HA_3424	NIMH-ChEFS
109.282	1	3.5	Incongruent	pII	FEAR	HAPPY	HAPPY	0.954	0	M6FA__5449	NIMH-ChEFS
113.849	1	4	Congruent	n/a	FEAR	FEAR	HAPPY	0.828	0	M19FS_9117	NIMH-ChEFS
118.921	1	2	Congruent	n/a	HAPPY	HAPPY	FEAR	0.545	0	F35HS_8418	NIMH-ChEFS
121.989	1	4	Incongruent	pCI	FEAR	HAPPY	HAPPY	0.459	0	F16FS_5978	NIMH-ChEFS
127.061	1	2	Incongruent	pII	FEAR	HAPPY	HAPPY	0.974	0	M1FA_4336	NIMH-ChEFS
130.105	1	3.5	Congruent	n/a	HAPPY	HAPPY	FEAR	0.603	0	M9HA_6057	NIMH-ChEFS
134.674	1	2.5	Congruent	n/a	FEAR	FEAR	HAPPY	0.587	0	F4FA_3712	NIMH-ChEFS
138.219	1	3	Incongruent	pCI	HAPPY	FEAR	FEAR	1.167	0	M15HS_8316	NIMH-ChEFS
142.266	1	2	Incongruent	pII	FEAR	HAPPY	HAPPY	0.757	0	F21FS_6587	NIMH-ChEFS
145.338	1	4	Congruent	n/a	HAPPY	HAPPY	FEAR	0.51	0	F19HA_6311	NIMH-ChEFS
150.401	1	2.5	Congruent	n/a	FEAR	FEAR	HAPPY	0.595	0	M10_4FS_6817	NIMH-ChEFS
153.968	1	3	Incongruent	pCI	HAPPY	FEAR	FEAR	0.761	0	F2HS_3448	NIMH-ChEFS
158.035	1	3.5	Incongruent	pII	HAPPY	FEAR	HAPPY	0.703	1	F10HA_4379	NIMH-ChEFS
162.605	1	4	Congruent	n/a	FEAR	FEAR	HAPPY	0.933	0	M14FA_7960	NIMH-ChEFS
167.672	1	3	Congruent	n/a	FEAR	FEAR	HAPPY	0.789	0	F30FA_8552	NIMH-ChEFS
171.739	1	3.5	Incongruent	pCI	HAPPY	FEAR	FEAR	0.32	0	M8HA_5828	NIMH-ChEFS
176.286	1	2	Incongruent	pII	FEAR	HAPPY	HAPPY	1.031	0	F35FS_8451	NIMH-ChEFS
179.334	1	2.5	Congruent	n/a	HAPPY	HAPPY	FEAR	0.635	0	M1HS_4301	NIMH-ChEFS
182.902	1	3	Congruent	n/a	FEAR	FEAR	HAPPY	0.463	0	F37FA_9020	NIMH-ChEFS
186.947	1	2	Incongruent	pCI	FEAR	HAPPY	FEAR	0.66	1	M11FS_6953	NIMH-ChEFS
190.016	1	2.5	Incongruent	pII	HAPPY	FEAR	HAPPY	0.652	1	F34HA_8219	NIMH-ChEFS
193.586	1	4	Congruent	n/a	FEAR	FEAR	FEAR	0.808	1	F10FS_4426	NIMH-ChEFS
198.654	1	3.5	Congruent	n/a	HAPPY	HAPPY	FEAR	0.816	0	M16HS_8633	NIMH-ChEFS
203.199	1	2	Incongruent	pCI	HAPPY	FEAR	FEAR	0.879	0	M5HA_5140	NIMH-ChEFS
206.247	1	3.5	Incongruent	pII	FEAR	HAPPY	FEAR	0.869	1	F12FA_5062	NIMH-ChEFS
210.795	1	3	Congruent	n/a	HAPPY	HAPPY	FEAR	0.919	0	F16HS_5924	NIMH-ChEFS
214.862	1	4	Congruent	n/a	FEAR	FEAR	HAPPY	0.477	0	M2FA_4644	NIMH-ChEFS
219.931	1	2.5	Incongruent	pCI	FEAR	HAPPY	HAPPY	1.015	0	M16FS_8676	NIMH-ChEFS
223.498	1	3	Incongruent	pII	HAPPY	FEAR	HAPPY	0.88	1	F6HA_3882	NIMH-ChEFS
227.567	1	4	Congruent	n/a	FEAR	FEAR	HAPPY	0.978	0	F19FS_6344	NIMH-ChEFS
232.634	1	2	Congruent	n/a	FEAR	FEAR	HAPPY	0.932	0	M8FA_5885	NIMH-ChEFS
235.702	1	3.5	Incongruent	pCI	HAPPY	FEAR	FEAR	0.425	0	F32HS_7996	NIMH-ChEFS
240.247	1	2.5	Incongruent	pII	HAPPY	FEAR	FEAR	0.998	0	M19HA_9066	NIMH-ChEFS
243.815	1	2	Congruent	n/a	FEAR	FEAR	FEAR	0.909	1	M3FS_4775	NIMH-ChEFS
246.883	1	4	Congruent	n/a	HAPPY	HAPPY	FEAR	0.802	0	F3HA_3545	NIMH-ChEFS
251.952	1	3	Incongruent	pCI	FEAR	HAPPY	HAPPY	0.932	0	M9FA_6121	NIMH-ChEFS
256.024	1	3.5	Incongruent	pII	FEAR	HAPPY	no_resp	-0.099	0	F14FA_5638	NIMH-ChEFS
260.568	1	2.5	Congruent	n/a	HAPPY	HAPPY	FEAR	0.902	0	M6HS_5354	NIMH-ChEFS
264.136	1	4	Congruent	n/a	HAPPY	HAPPY	FEAR	0.759	0	F21HS_6544	NIMH-ChEFS
269.206	1	3.5	Incongruent	pCI	FEAR	HAPPY	HAPPY	0.447	0	M17FS_8783	NIMH-ChEFS
273.775	1	2.5	Incongruent	pII	HAPPY	FEAR	FEAR	0.79	0	F37HA_8965	NIMH-ChEFS
277.322	1	2	Congruent	n/a	HAPPY	HAPPY	FEAR	0.675	0	M12HA_7030	NIMH-ChEFS
280.368	1	3	Congruent	n/a	FEAR	FEAR	HAPPY	0.747	0	F31FS_7861	NIMH-ChEFS
284.414	1	2	Incongruent	pCI	FEAR	HAPPY	HAPPY	1.002	0	F3FA_3605	NIMH-ChEFS
287.48	1	2.5	Incongruent	pII	HAPPY	FEAR	FEAR	0.604	0	M3HS_4695	NIMH-ChEFS
291.047	1	3	Congruent	n/a	FEAR	FEAR	HAPPY	0.765	0	M11FA_6969	NIMH-ChEFS
295.114	1	3.5	Congruent	n/a	HAPPY	HAPPY	FEAR	0.578	0	F14HS_5590	NIMH-ChEFS
299.683	1	4	Incongruent	pCI	FEAR	HAPPY	HAPPY	0.547	0	M12FS_7070	NIMH-ChEFS
304.748	1	4	Incongruent	pII	FEAR	HAPPY	HAPPY	0.685	0	F6FS_3906	NIMH-ChEFS
309.793	1	3	Congruent	n/a	HAPPY	HAPPY	FEAR	0.773	0	M7HA_5500	NIMH-ChEFS
313.861	1	2.5	Congruent	n/a	FEAR	FEAR	HAPPY	0.726	0	F23FA_7228	NIMH-ChEFS
317.406	1	3.5	Incongruent	pCI	HAPPY	FEAR	no_resp	-0.099	0	F31HA_8583	NIMH-ChEFS
321.949	1	2	Incongruent	pII	HAPPY	FEAR	FEAR	0.808	0	M11HS_6885	NIMH-ChEFS
324.995	1	2	Congruent	n/a	FEAR	FEAR	FEAR	1.129	1	M3FA_4789	NIMH-ChEFS
328.064	1	2.5	Congruent	n/a	FEAR	FEAR	HAPPY	0.547	0	F34FS_8257	NIMH-ChEFS
331.629	1	3.5	Incongruent	pCI	HAPPY	FEAR	FEAR	0.607	0	M17HS_8732	NIMH-ChEFS
336.199	1	4	Incongruent	pII	FEAR	HAPPY	HAPPY	1.056	0	F7FA_4040	NIMH-ChEFS
341.27	1	3	Congruent	n/a	HAPPY	HAPPY	FEAR	0.544	0	F10HS_4372	NIMH-ChEFS
345.313	1	3.5	Congruent	n/a	FEAR	FEAR	HAPPY	0.587	0	M1FS_4325	NIMH-ChEFS
349.879	1	3	Incongruent	pCI	FEAR	HAPPY	HAPPY	0.847	0	M6_1FA_5445	NIMH-ChEFS
353.947	1	2	Incongruent	pII	HAPPY	FEAR	FEAR	0.765	0	F35HA_8422	NIMH-ChEFS
357.015	1	4	Congruent	n/a	HAPPY	HAPPY	FEAR	0.588	0	M16HA_8638	NIMH-ChEFS
362.082	1	2.5	Congruent	n/a	FEAR	FEAR	HAPPY	0.485	0	F12FS_5036	NIMH-ChEFS
365.649	1	3.5	Incongruent	pCI	HAPPY	FEAR	FEAR	0.898	0	F1HS_3423	NIMH-ChEFS
370.217	1	2	Incongruent	pII	FEAR	HAPPY	HAPPY	0.552	0	M7FA_5539	NIMH-ChEFS
373.283	1	4	Congruent	n/a	FEAR	FEAR	HAPPY	0.707	0	F34FA_8267	NIMH-ChEFS
378.336	1	2.5	Congruent	n/a	HAPPY	HAPPY	FEAR	0.494	0	M8HS_5817	NIMH-ChEFS
381.902	1	3	Incongruent	pCI	FEAR	HAPPY	FEAR	0.966	1	F23FS_7205	NIMH-ChEFS
385.97	1	2.5	Incongruent	pII	HAPPY	FEAR	FEAR	0.848	0	M1HA_4302	NIMH-ChEFS
389.536	1	4	Congruent	n/a	FEAR	FEAR	HAPPY	0.943	0	M5FS_5188	NIMH-ChEFS
394.606	1	3.5	Congruent	n/a	HAPPY	HAPPY	FEAR	0.749	0	F18HA_6193	NIMH-ChEFS
399.175	1	2	Incongruent	pCI	FEAR	HAPPY	FEAR	1.027	1	M20FA_9277	NIMH-ChEFS
402.223	1	3	Incongruent	pII	FEAR	HAPPY	HAPPY	0.96	0	F10FA_4434	NIMH-ChEFS
406.294	1	4	Congruent	n/a	HAPPY	HAPPY	FEAR	0.836	0	F7HS_3986	NIMH-ChEFS
411.337	1	3.5	Congruent	n/a	HAPPY	HAPPY	FEAR	1.187	0	M12HS_7022	NIMH-ChEFS
415.889	1	2.5	Incongruent	pCI	FEAR	HAPPY	HAPPY	0.81	0	M7FS_5530	NIMH-ChEFS
419.439	1	3	Incongruent	pII	HAPPY	FEAR	FEAR	1.155	0	F21HA_6550	NIMH-ChEFS
423.485	1	2	Congruent	n/a	HAPPY	HAPPY	FEAR	0.765	0	M17HA_8742	NIMH-ChEFS
426.551	1	2.5	Congruent	n/a	FEAR	FEAR	HAPPY	0.874	0	F39FS_9475	NIMH-ChEFS
430.119	1	3	Incongruent	pCI	HAPPY	FEAR	FEAR	0.859	0	M11HA_6890	NIMH-ChEFS
434.187	1	3.5	Incongruent	pII	FEAR	HAPPY	FEAR	0.58	1	F19FA_6353	NIMH-ChEFS
438.755	1	2	Congruent	n/a	FEAR	FEAR	HAPPY	0.671	0	M15FA_8374	NIMH-ChEFS
441.822	1	4	Congruent	n/a	HAPPY	HAPPY	FEAR	0.654	0	F13HS_5255	NIMH-ChEFS
446.888	1	4	Incongruent	pCI	HAPPY	FEAR	FEAR	0.576	0	M20HS_9191	NIMH-ChEFS
451.959	1	2	Incongruent	pII	FEAR	HAPPY	HAPPY	0.483	0	M6FS_5422	NIMH-ChEFS
455.028	1	2.5	Congruent	n/a	HAPPY	HAPPY	HAPPY	0.678	1	F16HA_5934	NIMH-ChEFS
458.596	1	3.5	Congruent	n/a	FEAR	FEAR	FEAR	0.648	1	M18FA_8913	NIMH-ChEFS
463.166	1	3	Incongruent	pCI	HAPPY	FEAR	FEAR	0.769	0	F39HS_9426	NIMH-ChEFS
467.235	1	3.5	Incongruent	pII	FEAR	HAPPY	HAPPY	0.772	0	F3FS_3596	NIMH-ChEFS
471.803	1	4	Congruent	n/a	FEAR	FEAR	HAPPY	0.846	0	M8FS_5869	NIMH-ChEFS
476.873	1	2	Congruent	n/a	HAPPY	HAPPY	FEAR	0.713	0	M4HS_4862	NIMH-ChEFS
479.943	1	3	Incongruent	pCI	HAPPY	FEAR	HAPPY	1.095	1	F2HA_3451	NIMH-ChEFS
484.01	1	2.5	Incongruent	pII	HAPPY	FEAR	no_resp	-0.099	0	M10HA_6772	NIMH-ChEFS
487.553	1	3	Congruent	n/a	FEAR	FEAR	HAPPY	0.875	0	F18FS_6229	NIMH-ChEFS
491.6	1	2.5	Congruent	n/a	HAPPY	HAPPY	FEAR	0.9	0	F31HS_8581	NIMH-ChEFS
495.167	1	2	Incongruent	pCI	FEAR	HAPPY	HAPPY	1.059	0	M12FA_7082	NIMH-ChEFS
498.234	1	3.5	Incongruent	pII	HAPPY	FEAR	HAPPY	0.805	1	F12HA_5004	NIMH-ChEFS
502.776	1	4	Congruent	n/a	FEAR	FEAR	HAPPY	0.531	0	F6FA_3922	NIMH-ChEFS
507.846	1	3	Congruent	n/a	HAPPY	HAPPY	FEAR	0.4	0	M5HS_5134	NIMH-ChEFS
511.915	1	4	Incongruent	pCI	HAPPY	FEAR	FEAR	0.705	0	M14HS_7912	NIMH-ChEFS
516.983	1	3.5	Incongruent	pII	FEAR	HAPPY	HAPPY	0.894	0	F32FS_8041	NIMH-ChEFS
521.529	1	2	Congruent	n/a	FEAR	FEAR	HAPPY	0.675	0	M19FA_9129	NIMH-ChEFS
524.577	1	2.5	Congruent	n/a	HAPPY	HAPPY	FEAR	0.696	0	F34HS_8209	NIMH-ChEFS
528.143	1	4	Incongruent	pCI	HAPPY	FEAR	FEAR	0.801	0	M18HA_8854	NIMH-ChEFS
533.212	1	3.5	Incongruent	pII	FEAR	HAPPY	HAPPY	0.579	0	F16FA_5992	NIMH-ChEFS
537.778	1	2	Congruent	n/a	FEAR	FEAR	HAPPY	0.814	0	F37FS_9007	NIMH-ChEFS
540.822	1	3	Congruent	n/a	HAPPY	HAPPY	FEAR	0.945	0	M3HA_4707	NIMH-ChEFS
544.891	1	2.5	Incongruent	pCI	FEAR	HAPPY	HAPPY	1.119	0	M15FS_8364	NIMH-ChEFS
548.462	1	3.5	Incongruent	pII	FEAR	HAPPY	HAPPY	0.836	0	F13FA_5314	NIMH-ChEFS
553.033	1	2.5	Congruent	n/a	HAPPY	HAPPY	FEAR	0.604	0	F14HA_5595	NIMH-ChEFS
556.579	1	4	Congruent	n/a	FEAR	FEAR	HAPPY	0.753	0	M5FA_5198	NIMH-ChEFS
561.627	1	2	Incongruent	pCI	FEAR	HAPPY	FEAR	0.716	1	F2FA_3491	NIMH-ChEFS
564.695	1	3	Incongruent	pII	HAPPY	FEAR	FEAR	1.05	0	F23HS_7148	NIMH-ChEFS
568.761	1	2	Congruent	n/a	FEAR	FEAR	HAPPY	0.808	0	M18FS_8888	NIMH-ChEFS
571.829	1	4	Congruent	n/a	HAPPY	HAPPY	HAPPY	0.835	1	F30HA_8500	NIMH-ChEFS
576.897	1	3.5	Incongruent	pCI	HAPPY	FEAR	FEAR	0.723	0	M7HS_5497	NIMH-ChEFS
581.465	1	2.5	Incongruent	pII	FEAR	HAPPY	HAPPY	0.809	0	F14FS_5632	NIMH-ChEFS
585.037	1	3	Congruent	n/a	HAPPY	HAPPY	FEAR	0.82	0	M2HA_4506	NIMH-ChEFS
589.106	1	2.5	Congruent	n/a	FEAR	FEAR	HAPPY	0.785	0	F21FA_6608	NIMH-ChEFS
592.675	1	4	Incongruent	pCI	HAPPY	FEAR	FEAR	0.788	0	F6HS_3875	NIMH-ChEFS
597.744	1	3	Incongruent	pII	HAPPY	FEAR	FEAR	1.104	0	M19HS_9059	NIMH-ChEFS
601.815	1	3.5	Congruent	n/a	FEAR	FEAR	HAPPY	0.939	0	F4FS_3704	NIMH-ChEFS
606.386	1	2	Congruent	n/a	HAPPY	HAPPY	FEAR	0.814	0	F32HA_7998	NIMH-ChEFS
609.429	1	2.5	Incongruent	pCI	HAPPY	FEAR	FEAR	0.635	0	M6HA_5360	NIMH-ChEFS
613	1	4	Incongruent	pII	FEAR	HAPPY	HAPPY	0.613	0	M16FA_8681	NIMH-ChEFS
618.068	1	3	Congruent	n/a	HAPPY	HAPPY	FEAR	0.474	0	F19HS_6297	NIMH-ChEFS
622.135	1	3.5	Congruent	n/a	FEAR	FEAR	HAPPY	0.532	0	F35FA_8465	NIMH-ChEFS
626.703	1	2	Incongruent	pCI	FEAR	HAPPY	FEAR	0.543	1	M4FS_4935	NIMH-ChEFS
629.748	1	4	Incongruent	pII	HAPPY	FEAR	FEAR	1.058	0	F37HS_8954	NIMH-ChEFS
634.814	1	2.5	Congruent	n/a	FEAR	FEAR	HAPPY	0.525	0	F30FS_8546	NIMH-ChEFS
638.384	1	3.5	Congruent	n/a	HAPPY	HAPPY	FEAR	0.726	0	M9HS_6054	NIMH-ChEFS
642.954	1	2	Incongruent	pCI	FEAR	HAPPY	HAPPY	0.644	0	F31FA_7873	NIMH-ChEFS
646.024	1	3	Incongruent	pII	HAPPY	FEAR	FEAR	0.803	0	F4HA_3668	NIMH-ChEFS
650.094	1	2.5	Congruent	n/a	HAPPY	HAPPY	FEAR	0.833	0	M15HA_8321	NIMH-ChEFS
653.64	1	2	Incongruent	pCI	HAPPY	FEAR	FEAR	0.673	0	F3HS_3540	NIMH-ChEFS
656.708	1	4	Incongruent	pII	FEAR	HAPPY	HAPPY	0.954	0	M20FS_9236	NIMH-ChEFS
