onset	duration	interstimulus_interval	trial_type	trial_type_2	target_condition	distractor	response	response_time	correct	identifier	database
0.061	1	2.5	Congruent	n/a	FEAR	FEAR	no_resp	-0.099	0	M9FS_6104	NIMH-ChEFS
3.618	1	3	Congruent	n/a	HAPPY	HAPPY	HAPPY	0.791	1	F13HA_5265	NIMH-ChEFS
7.708	1	3.5	Incongruent	pCI	HAPPY	FEAR	HAPPY	0.771	1	M4HA_4877	NIMH-ChEFS
12.306	1	2	Incongruent	pII	FEAR	HAPPY	FEAR	0.988	1	F7FS_4016	NIMH-ChEFS
15.387	1	4	Congruent	n/a	HAPPY	HAPPY	HAPPY	0.787	1	F30HS_8495	NIMH-ChEFS
20.468	1	4	Congruent	n/a	FEAR	FEAR	FEAR	0.816	1	M4FA_4941	NIMH-ChEFS
25.545	1	3.5	Incongruent	pCI	FEAR	HAPPY	FEAR	0.784	1	F32FA_8053	NIMH-ChEFS
30.126	1	2	Incongruent	pII	HAPPY	FEAR	HAPPY	0.658	1	M10HS_6767	NIMH-ChEFS
33.204	1	2.5	Congruent	n/a	HAPPY	HAPPY	HAPPY	0.715	1	F23HA_7156	NIMH-ChEFS
36.781	1	3	Congruent	n/a	FEAR	FEAR	FEAR	0.588	1	F13FS_5292	NIMH-ChEFS
40.858	1	3	Incongruent	pCI	HAPPY	FEAR	HAPPY	0.851	1	F4HS_3664	NIMH-ChEFS
44.935	1	2	Incongruent	pII	HAPPY	FEAR	HAPPY	1.214	1	M20HA_9192	NIMH-ChEFS
48.012	1	2.5	Congruent	n/a	FEAR	FEAR	FEAR	0.837	1	F18FA_6243	NIMH-ChEFS
51.589	1	4	Congruent	n/a	HAPPY	HAPPY	HAPPY	0.605	1	M18HS_8848	NIMH-ChEFS
56.67	1	3.5	Incongruent	pCI	FEAR	HAPPY	FEAR	0.899	1	M14FS_7958	NIMH-ChEFS
61.244	1	4	Incongruent	pII	HAPPY	FEAR	HAPPY	0.895	1	F39HA_9433	NIMH-ChEFS
66.321	1	3	Congruent	n/a	FEAR	FEAR	FEAR	0.728	1	M10_FA_6823	NIMH-ChEFS
70.4	1	3.5	Congruent	n/a	HAPPY	HAPPY	HAPPY	0.584	1	F12HS_5000	NIMH-ChEFS
74.981	1	2.5	Incongruent	pCI	FEAR	HAPPY	no_resp	-0.099	0	M17FA_8799	NIMH-ChEFS
78.528	1	2	Incongruent	pII	FEAR	HAPPY	FEAR	0.846	1	F2FS_3470	NIMH-ChEFS
81.611	1	4	Congruent	n/a	HAPPY	HAPPY	HAPPY	0.648	1	M14HA_7913	NIMH-ChEFS
86.693	1	3	Congruent	n/a	HAPPY	HAPPY	HAPPY	0.781	1	F7HA_3985	NIMH-ChEFS
90.771	1	2	Incongruent	pCI	FEAR	HAPPY	FEAR	0.973	1	M2FS_4636	NIMH-ChEFS
93.851	1	2.5	Incongruent	pII	HAPPY	FEAR	HAPPY	0.803	1	F18HS_6186	NIMH-ChEFS
97.429	1	3.5	Congruent	n/a	FEAR	FEAR	FEAR	0.54	1	F39FA_9489	NIMH-ChEFS
101.974	1	2	Congruent	n/a	HAPPY	HAPPY	HAPPY	0.52	1	M2HS_4493	NIMH-ChEFS
105.051	1	3.5	Incongruent	pCI	HAPPY	FEAR	FEAR	1.113	0	F1HA_3424	NIMH-ChEFS
109.632	1	4	Incongruent	pII	FEAR	HAPPY	FEAR	0.832	1	M6FA__5449	NIMH-ChEFS
114.71	1	3	Congruent	n/a	FEAR	FEAR	FEAR	0.714	1	M19FS_9117	NIMH-ChEFS
118.787	1	2.5	Congruent	n/a	HAPPY	HAPPY	HAPPY	0.597	1	F35HS_8418	NIMH-ChEFS
122.367	1	3.5	Incongruent	pCI	FEAR	HAPPY	HAPPY	0.547	0	F16FS_5978	NIMH-ChEFS
126.945	1	4	Incongruent	pII	FEAR	HAPPY	FEAR	1.059	1	M1FA_4336	NIMH-ChEFS
132.021	1	2.5	Congruent	n/a	HAPPY	HAPPY	HAPPY	0.578	1	M9HA_6057	NIMH-ChEFS
135.586	1	2	Congruent	n/a	FEAR	FEAR	FEAR	0.748	1	F4FA_3712	NIMH-ChEFS
138.663	1	3	Incongruent	pCI	HAPPY	FEAR	HAPPY	1.056	1	M15HS_8316	NIMH-ChEFS
142.738	1	3.5	Incongruent	pII	FEAR	HAPPY	FEAR	0.701	1	F21FS_6587	NIMH-ChEFS
147.316	1	2	Congruent	n/a	HAPPY	HAPPY	HAPPY	0.603	1	F19HA_6311	NIMH-ChEFS
150.394	1	4	Congruent	n/a	FEAR	FEAR	FEAR	0.89	1	M10_4FS_6817	NIMH-ChEFS
155.47	1	3	Incongruent	pCI	HAPPY	FEAR	HAPPY	0.699	1	F2HS_3448	NIMH-ChEFS
159.554	1	2.5	Incongruent	pII	HAPPY	FEAR	HAPPY	0.885	1	F10HA_4379	NIMH-ChEFS
163.135	1	3.5	Congruent	n/a	FEAR	FEAR	FEAR	0.589	1	M14FA_7960	NIMH-ChEFS
167.716	1	2	Congruent	n/a	FEAR	FEAR	FEAR	0.778	1	F30FA_8552	NIMH-ChEFS
170.794	1	2.5	Incongruent	pCI	HAPPY	FEAR	HAPPY	0.71	1	M8HA_5828	NIMH-ChEFS
174.374	1	4	Incongruent	pII	FEAR	HAPPY	FEAR	0.73	1	F35FS_8451	NIMH-ChEFS
179.453	1	3	Congruent	n/a	HAPPY	HAPPY	HAPPY	0.776	1	M1HS_4301	NIMH-ChEFS
183.53	1	3	Congruent	n/a	FEAR	FEAR	FEAR	0.734	1	F37FA_9020	NIMH-ChEFS
187.609	1	2.5	Incongruent	pCI	FEAR	HAPPY	no_resp	-0.099	0	M11FS_6953	NIMH-ChEFS
191.153	1	4	Incongruent	pII	HAPPY	FEAR	HAPPY	0.706	1	F34HA_8219	NIMH-ChEFS
196.229	1	3.5	Congruent	n/a	FEAR	FEAR	FEAR	0.59	1	F10FS_4426	NIMH-ChEFS
200.801	1	2	Congruent	n/a	HAPPY	HAPPY	HAPPY	0.793	1	M16HS_8633	NIMH-ChEFS
203.876	1	4	Incongruent	pCI	HAPPY	FEAR	HAPPY	0.953	1	M5HA_5140	NIMH-ChEFS
208.953	1	3	Incongruent	pII	FEAR	HAPPY	FEAR	0.701	1	F12FA_5062	NIMH-ChEFS
213.03	1	2	Congruent	n/a	HAPPY	HAPPY	HAPPY	0.609	1	F16HS_5924	NIMH-ChEFS
216.107	1	2.5	Congruent	n/a	FEAR	FEAR	FEAR	0.717	1	M2FA_4644	NIMH-ChEFS
219.684	1	3.5	Incongruent	pCI	FEAR	HAPPY	FEAR	0.83	1	M16FS_8676	NIMH-ChEFS
224.263	1	3.5	Incongruent	pII	HAPPY	FEAR	HAPPY	0.601	1	F6HA_3882	NIMH-ChEFS
228.84	1	3	Congruent	n/a	FEAR	FEAR	FEAR	0.674	1	F19FS_6344	NIMH-ChEFS
232.912	1	2	Congruent	n/a	FEAR	FEAR	FEAR	0.672	1	M8FA_5885	NIMH-ChEFS
235.991	1	4	Incongruent	pCI	HAPPY	FEAR	HAPPY	0.808	1	F32HS_7996	NIMH-ChEFS
241.069	1	2.5	Incongruent	pII	HAPPY	FEAR	HAPPY	0.75	1	M19HA_9066	NIMH-ChEFS
244.646	1	4	Congruent	n/a	FEAR	FEAR	FEAR	0.783	1	M3FS_4775	NIMH-ChEFS
249.725	1	3	Congruent	n/a	HAPPY	HAPPY	HAPPY	0.539	1	F3HA_3545	NIMH-ChEFS
253.799	1	2	Incongruent	pCI	FEAR	HAPPY	FEAR	0.825	1	M9FA_6121	NIMH-ChEFS
256.878	1	3.5	Incongruent	pII	FEAR	HAPPY	FEAR	0.771	1	F14FA_5638	NIMH-ChEFS
261.46	1	2.5	Congruent	n/a	HAPPY	HAPPY	HAPPY	0.604	1	M6HS_5354	NIMH-ChEFS
265.038	1	2.5	Congruent	n/a	HAPPY	HAPPY	HAPPY	0.641	1	F21HS_6544	NIMH-ChEFS
268.619	1	3.5	Incongruent	pCI	FEAR	HAPPY	FEAR	0.65	1	M17FS_8783	NIMH-ChEFS
273.194	1	2	Incongruent	pII	HAPPY	FEAR	HAPPY	0.695	1	F37HA_8965	NIMH-ChEFS
276.266	1	3	Congruent	n/a	HAPPY	HAPPY	HAPPY	0.798	1	M12HA_7030	NIMH-ChEFS
280.336	1	4	Congruent	n/a	FEAR	FEAR	FEAR	0.703	1	F31FS_7861	NIMH-ChEFS
285.415	1	3.5	Incongruent	pCI	FEAR	HAPPY	FEAR	0.865	1	F3FA_3605	NIMH-ChEFS
289.992	1	2	Incongruent	pII	HAPPY	FEAR	FEAR	0.848	0	M3HS_4695	NIMH-ChEFS
293.067	1	4	Congruent	n/a	FEAR	FEAR	FEAR	0.763	1	M11FA_6969	NIMH-ChEFS
298.15	1	3	Congruent	n/a	HAPPY	HAPPY	HAPPY	0.705	1	F14HS_5590	NIMH-ChEFS
302.229	1	2.5	Incongruent	pCI	FEAR	HAPPY	FEAR	0.806	1	M12FS_7070	NIMH-ChEFS
305.808	1	4	Incongruent	pII	FEAR	HAPPY	HAPPY	0.692	0	F6FS_3906	NIMH-ChEFS
310.888	1	2.5	Congruent	n/a	HAPPY	HAPPY	HAPPY	0.962	1	M7HA_5500	NIMH-ChEFS
314.472	1	3.5	Congruent	n/a	FEAR	FEAR	FEAR	0.953	1	F23FA_7228	NIMH-ChEFS
319.053	1	2	Incongruent	pCI	HAPPY	FEAR	HAPPY	0.752	1	F31HA_8583	NIMH-ChEFS
322.135	1	3	Incongruent	pII	HAPPY	FEAR	HAPPY	0.63	1	M11HS_6885	NIMH-ChEFS
326.216	1	2.5	Congruent	n/a	FEAR	FEAR	FEAR	0.844	1	M3FA_4789	NIMH-ChEFS
329.797	1	3.5	Congruent	n/a	FEAR	FEAR	FEAR	0.868	1	F34FS_8257	NIMH-ChEFS
334.377	1	4	Incongruent	pCI	HAPPY	FEAR	HAPPY	0.733	1	M17HS_8732	NIMH-ChEFS
339.466	1	3	Incongruent	pII	FEAR	HAPPY	FEAR	0.754	1	F7FA_4040	NIMH-ChEFS
343.551	1	2	Congruent	n/a	HAPPY	HAPPY	HAPPY	0.619	1	F10HS_4372	NIMH-ChEFS
346.644	1	3	Congruent	n/a	FEAR	FEAR	FEAR	0.801	1	M1FS_4325	NIMH-ChEFS
350.729	1	4	Incongruent	pCI	FEAR	HAPPY	FEAR	0.746	1	M6_1FA_5445	NIMH-ChEFS
355.816	1	3.5	Incongruent	pII	HAPPY	FEAR	HAPPY	0.769	1	F35HA_8422	NIMH-ChEFS
360.397	1	2.5	Congruent	n/a	HAPPY	HAPPY	HAPPY	0.633	1	M16HA_8638	NIMH-ChEFS
363.976	1	2	Congruent	n/a	FEAR	FEAR	FEAR	0.704	1	F12FS_5036	NIMH-ChEFS
367.054	1	2.5	Incongruent	pCI	HAPPY	FEAR	HAPPY	0.856	1	F1HS_3423	NIMH-ChEFS
370.643	1	2	Incongruent	pII	FEAR	HAPPY	FEAR	0.722	1	M7FA_5539	NIMH-ChEFS
373.723	1	4	Congruent	n/a	FEAR	FEAR	FEAR	0.637	1	F34FA_8267	NIMH-ChEFS
378.802	1	3	Congruent	n/a	HAPPY	HAPPY	HAPPY	0.633	1	M8HS_5817	NIMH-ChEFS
382.884	1	3.5	Incongruent	pCI	FEAR	HAPPY	FEAR	0.906	1	F23FS_7205	NIMH-ChEFS
387.474	1	4	Incongruent	pII	HAPPY	FEAR	HAPPY	1.051	1	M1HA_4302	NIMH-ChEFS
392.553	1	2.5	Congruent	n/a	FEAR	FEAR	FEAR	0.687	1	M5FS_5188	NIMH-ChEFS
396.14	1	3	Congruent	n/a	HAPPY	HAPPY	HAPPY	0.555	1	F18HA_6193	NIMH-ChEFS
400.226	1	2	Incongruent	pCI	FEAR	HAPPY	FEAR	0.974	1	M20FA_9277	NIMH-ChEFS
403.313	1	3.5	Incongruent	pII	FEAR	HAPPY	HAPPY	0.527	0	F10FA_4434	NIMH-ChEFS
407.897	1	4	Congruent	n/a	HAPPY	HAPPY	HAPPY	0.618	1	F7HS_3986	NIMH-ChEFS
412.978	1	2	Congruent	n/a	HAPPY	HAPPY	HAPPY	0.602	1	M12HS_7022	NIMH-ChEFS
416.064	1	3	Incongruent	pCI	FEAR	HAPPY	FEAR	0.606	1	M7FS_5530	NIMH-ChEFS
420.146	1	2.5	Incongruent	pII	HAPPY	FEAR	HAPPY	0.999	1	F21HA_6550	NIMH-ChEFS
423.728	1	3.5	Congruent	n/a	HAPPY	HAPPY	HAPPY	0.587	1	M17HA_8742	NIMH-ChEFS
428.309	1	2	Congruent	n/a	FEAR	FEAR	FEAR	0.591	1	F39FS_9475	NIMH-ChEFS
431.392	1	2.5	Incongruent	pCI	HAPPY	FEAR	FEAR	0.528	0	M11HA_6890	NIMH-ChEFS
434.974	1	3.5	Incongruent	pII	FEAR	HAPPY	FEAR	0.636	1	F19FA_6353	NIMH-ChEFS
439.554	1	3	Congruent	n/a	FEAR	FEAR	FEAR	0.811	1	M15FA_8374	NIMH-ChEFS
443.634	1	4	Congruent	n/a	HAPPY	HAPPY	HAPPY	0.591	1	F13HS_5255	NIMH-ChEFS
448.711	1	3	Incongruent	pCI	HAPPY	FEAR	HAPPY	1.009	1	M20HS_9191	NIMH-ChEFS
452.767	1	4	Incongruent	pII	FEAR	HAPPY	FEAR	0.978	1	M6FS_5422	NIMH-ChEFS
457.847	1	3.5	Congruent	n/a	HAPPY	HAPPY	HAPPY	0.543	1	F16HA_5934	NIMH-ChEFS
462.429	1	2.5	Congruent	n/a	FEAR	FEAR	FEAR	0.666	1	M18FA_8913	NIMH-ChEFS
465.994	1	2	Incongruent	pCI	HAPPY	FEAR	HAPPY	0.496	1	F39HS_9426	NIMH-ChEFS
469.074	1	3.5	Incongruent	pII	FEAR	HAPPY	FEAR	0.836	1	F3FS_3596	NIMH-ChEFS
473.655	1	3	Congruent	n/a	FEAR	FEAR	FEAR	0.65	1	M8FS_5869	NIMH-ChEFS
477.733	1	2.5	Congruent	n/a	HAPPY	HAPPY	HAPPY	0.702	1	M4HS_4862	NIMH-ChEFS
481.314	1	4	Incongruent	pCI	HAPPY	FEAR	HAPPY	1.071	1	F2HA_3451	NIMH-ChEFS
486.39	1	2	Incongruent	pII	HAPPY	FEAR	no_resp	-0.099	0	M10HA_6772	NIMH-ChEFS
489.436	1	3	Congruent	n/a	FEAR	FEAR	FEAR	0.729	1	F18FS_6229	NIMH-ChEFS
493.518	1	2	Congruent	n/a	HAPPY	HAPPY	HAPPY	0.806	1	F31HS_8581	NIMH-ChEFS
496.603	1	2.5	Incongruent	pCI	FEAR	HAPPY	FEAR	0.846	1	M12FA_7082	NIMH-ChEFS
500.179	1	4	Incongruent	pII	HAPPY	FEAR	HAPPY	0.816	1	F12HA_5004	NIMH-ChEFS
505.256	1	3.5	Congruent	n/a	FEAR	FEAR	FEAR	0.724	1	F6FA_3922	NIMH-ChEFS
509.84	1	3	Congruent	n/a	HAPPY	HAPPY	HAPPY	0.92	1	M5HS_5134	NIMH-ChEFS
513.923	1	3.5	Incongruent	pCI	HAPPY	FEAR	HAPPY	0.837	1	M14HS_7912	NIMH-ChEFS
518.51	1	4	Incongruent	pII	FEAR	HAPPY	FEAR	1	1	F32FS_8041	NIMH-ChEFS
523.593	1	2.5	Congruent	n/a	FEAR	FEAR	FEAR	1.132	1	M19FA_9129	NIMH-ChEFS
527.18	1	2	Congruent	n/a	HAPPY	HAPPY	HAPPY	0.575	1	F34HS_8209	NIMH-ChEFS
530.268	1	2.5	Incongruent	pCI	HAPPY	FEAR	FEAR	0.977	0	M18HA_8854	NIMH-ChEFS
533.852	1	2	Incongruent	pII	FEAR	HAPPY	HAPPY	0.563	0	F16FA_5992	NIMH-ChEFS
536.934	1	3.5	Congruent	n/a	FEAR	FEAR	FEAR	0.666	1	F37FS_9007	NIMH-ChEFS
541.516	1	3	Congruent	n/a	HAPPY	HAPPY	HAPPY	0.729	1	M3HA_4707	NIMH-ChEFS
545.597	1	4	Incongruent	pCI	FEAR	HAPPY	FEAR	0.858	1	M15FS_8364	NIMH-ChEFS
550.678	1	2	Incongruent	pII	FEAR	HAPPY	FEAR	0.777	1	F13FA_5314	NIMH-ChEFS
553.757	1	3.5	Congruent	n/a	HAPPY	HAPPY	HAPPY	0.958	1	F14HA_5595	NIMH-ChEFS
558.338	1	4	Congruent	n/a	FEAR	FEAR	FEAR	0.647	1	M5FA_5198	NIMH-ChEFS
563.416	1	3	Incongruent	pCI	FEAR	HAPPY	FEAR	0.819	1	F2FA_3491	NIMH-ChEFS
567.493	1	2.5	Incongruent	pII	HAPPY	FEAR	FEAR	0.962	0	F23HS_7148	NIMH-ChEFS
571.071	1	3.5	Congruent	n/a	FEAR	FEAR	FEAR	0.684	1	M18FS_8888	NIMH-ChEFS
575.652	1	4	Congruent	n/a	HAPPY	HAPPY	HAPPY	0.648	1	F30HA_8500	NIMH-ChEFS
580.731	1	3	Incongruent	pCI	HAPPY	FEAR	no_resp	-0.099	0	M7HS_5497	NIMH-ChEFS
584.776	1	2.5	Incongruent	pII	FEAR	HAPPY	FEAR	0.659	1	F14FS_5632	NIMH-ChEFS
588.353	1	2	Congruent	n/a	HAPPY	HAPPY	HAPPY	0.628	1	M2HA_4506	NIMH-ChEFS
591.431	1	4	Congruent	n/a	FEAR	FEAR	FEAR	0.895	1	F21FA_6608	NIMH-ChEFS
596.51	1	3	Incongruent	pCI	HAPPY	FEAR	HAPPY	0.961	1	F6HS_3875	NIMH-ChEFS
600.587	1	3.5	Incongruent	pII	HAPPY	FEAR	HAPPY	0.734	1	M19HS_9059	NIMH-ChEFS
605.168	1	2.5	Congruent	n/a	FEAR	FEAR	FEAR	0.718	1	F4FS_3704	NIMH-ChEFS
608.713	1	2	Congruent	n/a	HAPPY	HAPPY	HAPPY	0.618	1	F32HA_7998	NIMH-ChEFS
611.79	1	2	Incongruent	pCI	HAPPY	FEAR	HAPPY	0.626	1	M6HA_5360	NIMH-ChEFS
614.867	1	3.5	Incongruent	pII	FEAR	HAPPY	FEAR	0.814	1	M16FA_8681	NIMH-ChEFS
619.45	1	2.5	Congruent	n/a	HAPPY	HAPPY	HAPPY	0.616	1	F19HS_6297	NIMH-ChEFS
623.027	1	3	Congruent	n/a	FEAR	FEAR	FEAR	0.749	1	F35FA_8465	NIMH-ChEFS
627.105	1	4	Incongruent	pCI	FEAR	HAPPY	FEAR	0.686	1	M4FS_4935	NIMH-ChEFS
632.183	1	2	Incongruent	pII	HAPPY	FEAR	HAPPY	0.688	1	F37HS_8954	NIMH-ChEFS
635.262	1	3	Congruent	n/a	FEAR	FEAR	FEAR	0.784	1	F30FS_8546	NIMH-ChEFS
639.339	1	3.5	Congruent	n/a	HAPPY	HAPPY	HAPPY	0.637	1	M9HS_6054	NIMH-ChEFS
643.914	1	4	Incongruent	pCI	FEAR	HAPPY	FEAR	0.737	1	F31FA_7873	NIMH-ChEFS
648.992	1	2.5	Incongruent	pII	HAPPY	FEAR	HAPPY	0.989	1	F4HA_3668	NIMH-ChEFS
652.572	1	3	Congruent	n/a	HAPPY	HAPPY	HAPPY	0.964	1	M15HA_8321	NIMH-ChEFS
656.651	1	2.5	Incongruent	pCI	HAPPY	FEAR	HAPPY	0.93	1	F3HS_3540	NIMH-ChEFS
660.23	1	3.5	Incongruent	pII	FEAR	HAPPY	FEAR	0.671	1	M20FS_9236	NIMH-ChEFS
