onset	duration	interstimulus_interval	trial_type	trial_type_2	target_condition	distractor	response	response_time	correct	identifier	database
0.072	1	4	Congruent	n/a	FEAR	FEAR	FEAR	0.896	1	M9FS_6104	NIMH-ChEFS
5.132	1	2	Congruent	n/a	HAPPY	HAPPY	HAPPY	0.684	1	F13HA_5265	NIMH-ChEFS
8.208	1	2.5	Incongruent	pCI	HAPPY	FEAR	FEAR	0.619	0	M4HA_4877	NIMH-ChEFS
11.794	1	3	Incongruent	pII	FEAR	HAPPY	FEAR	1.113	1	F7FS_4016	NIMH-ChEFS
15.868	1	3.5	Congruent	n/a	HAPPY	HAPPY	HAPPY	0.913	1	F30HS_8495	NIMH-ChEFS
20.432	1	4	Congruent	n/a	FEAR	FEAR	FEAR	0.707	1	M4FA_4941	NIMH-ChEFS
25.478	1	2.5	Incongruent	pCI	FEAR	HAPPY	FEAR	0.761	1	F32FA_8053	NIMH-ChEFS
29.023	1	3	Incongruent	pII	HAPPY	FEAR	HAPPY	0.916	1	M10HS_6767	NIMH-ChEFS
33.071	1	2	Congruent	n/a	HAPPY	HAPPY	HAPPY	0.836	1	F23HA_7156	NIMH-ChEFS
36.116	1	3.5	Congruent	n/a	FEAR	FEAR	FEAR	0.671	1	F13FS_5292	NIMH-ChEFS
40.687	1	4	Incongruent	pCI	HAPPY	FEAR	HAPPY	0.901	1	F4HS_3664	NIMH-ChEFS
45.757	1	2	Incongruent	pII	HAPPY	FEAR	HAPPY	0.783	1	M20HA_9192	NIMH-ChEFS
48.828	1	3	Congruent	n/a	FEAR	FEAR	FEAR	0.674	1	F18FA_6243	NIMH-ChEFS
52.877	1	2.5	Congruent	n/a	HAPPY	HAPPY	HAPPY	0.713	1	M18HS_8848	NIMH-ChEFS
56.425	1	3.5	Incongruent	pCI	FEAR	HAPPY	FEAR	0.619	1	M14FS_7958	NIMH-ChEFS
60.971	1	4	Incongruent	pII	HAPPY	FEAR	HAPPY	0.822	1	F39HA_9433	NIMH-ChEFS
66.015	1	3	Congruent	n/a	FEAR	FEAR	FEAR	0.606	1	M10_FA_6823	NIMH-ChEFS
70.063	1	3.5	Congruent	n/a	HAPPY	HAPPY	HAPPY	0.606	1	F12HS_5000	NIMH-ChEFS
74.634	1	2	Incongruent	pCI	FEAR	HAPPY	FEAR	0.665	1	M17FA_8799	NIMH-ChEFS
77.706	1	2.5	Incongruent	pII	FEAR	HAPPY	FEAR	0.736	1	F2FS_3470	NIMH-ChEFS
81.255	1	3.5	Congruent	n/a	HAPPY	HAPPY	HAPPY	0.635	1	M14HA_7913	NIMH-ChEFS
85.805	1	2	Congruent	n/a	HAPPY	HAPPY	HAPPY	0.528	1	F7HA_3985	NIMH-ChEFS
88.879	1	2.5	Incongruent	pCI	FEAR	HAPPY	FEAR	0.735	1	M2FS_4636	NIMH-ChEFS
92.431	1	3	Incongruent	pII	HAPPY	FEAR	HAPPY	0.692	1	F18HS_6186	NIMH-ChEFS
96.501	1	4	Congruent	n/a	FEAR	FEAR	FEAR	0.906	1	F39FA_9489	NIMH-ChEFS
101.551	1	2.5	Congruent	n/a	HAPPY	HAPPY	HAPPY	0.522	1	M2HS_4493	NIMH-ChEFS
105.101	1	2	Incongruent	pCI	HAPPY	FEAR	HAPPY	1.008	1	F1HA_3424	NIMH-ChEFS
108.15	1	4	Incongruent	pII	FEAR	HAPPY	FEAR	0.688	1	M6FA__5449	NIMH-ChEFS
113.2	1	3.5	Congruent	n/a	FEAR	FEAR	FEAR	1.115	1	M19FS_9117	NIMH-ChEFS
117.77	1	3	Congruent	n/a	HAPPY	HAPPY	HAPPY	0.555	1	F35HS_8418	NIMH-ChEFS
121.819	1	3.5	Incongruent	pCI	FEAR	HAPPY	FEAR	0.666	1	F16FS_5978	NIMH-ChEFS
126.367	1	4	Incongruent	pII	FEAR	HAPPY	FEAR	0.676	1	M1FA_4336	NIMH-ChEFS
131.439	1	3	Congruent	n/a	HAPPY	HAPPY	HAPPY	0.675	1	M9HA_6057	NIMH-ChEFS
135.486	1	2.5	Congruent	n/a	FEAR	FEAR	FEAR	0.636	1	F4FA_3712	NIMH-ChEFS
139.056	1	2	Incongruent	pCI	HAPPY	FEAR	FEAR	0.936	0	M15HS_8316	NIMH-ChEFS
142.108	1	2.5	Incongruent	pII	FEAR	HAPPY	FEAR	0.931	1	F21FS_6587	NIMH-ChEFS
145.677	1	2	Congruent	n/a	HAPPY	HAPPY	HAPPY	0.457	1	F19HA_6311	NIMH-ChEFS
148.746	1	3	Congruent	n/a	FEAR	FEAR	FEAR	0.635	1	M10_4FS_6817	NIMH-ChEFS
152.791	1	3.5	Incongruent	pCI	HAPPY	FEAR	HAPPY	0.393	1	F2HS_3448	NIMH-ChEFS
157.341	1	4	Incongruent	pII	HAPPY	FEAR	HAPPY	0.631	1	F10HA_4379	NIMH-ChEFS
162.387	1	3	Congruent	n/a	FEAR	FEAR	FEAR	0.754	1	M14FA_7960	NIMH-ChEFS
166.455	1	2.5	Congruent	n/a	FEAR	FEAR	FEAR	0.556	1	F30FA_8552	NIMH-ChEFS
170.028	1	2	Incongruent	pCI	HAPPY	FEAR	HAPPY	0.761	1	M8HA_5828	NIMH-ChEFS
173.097	1	4	Incongruent	pII	FEAR	HAPPY	FEAR	0.655	1	F35FS_8451	NIMH-ChEFS
178.141	1	3.5	Congruent	n/a	HAPPY	HAPPY	HAPPY	0.481	1	M1HS_4301	NIMH-ChEFS
182.687	1	2.5	Congruent	n/a	FEAR	FEAR	FEAR	0.713	1	F37FA_9020	NIMH-ChEFS
186.236	1	3	Incongruent	pCI	FEAR	HAPPY	FEAR	0.994	1	M11FS_6953	NIMH-ChEFS
190.285	1	3.5	Incongruent	pII	HAPPY	FEAR	FEAR	0.971	0	F34HA_8219	NIMH-ChEFS
194.859	1	4	Congruent	n/a	FEAR	FEAR	FEAR	0.501	1	F10FS_4426	NIMH-ChEFS
199.931	1	2	Congruent	n/a	HAPPY	HAPPY	HAPPY	0.645	1	M16HS_8633	NIMH-ChEFS
202.999	1	4	Incongruent	pCI	HAPPY	FEAR	HAPPY	1.25	1	M5HA_5140	NIMH-ChEFS
208.047	1	2	Incongruent	pII	FEAR	HAPPY	FEAR	0.603	1	F12FA_5062	NIMH-ChEFS
211.12	1	3.5	Congruent	n/a	HAPPY	HAPPY	HAPPY	0.557	1	F16HS_5924	NIMH-ChEFS
215.689	1	2.5	Congruent	n/a	FEAR	FEAR	FEAR	0.493	1	M2FA_4644	NIMH-ChEFS
219.236	1	3	Incongruent	pCI	FEAR	HAPPY	FEAR	0.637	1	M16FS_8676	NIMH-ChEFS
223.284	1	2	Incongruent	pII	HAPPY	FEAR	HAPPY	0.585	1	F6HA_3882	NIMH-ChEFS
226.331	1	4	Congruent	n/a	FEAR	FEAR	FEAR	0.683	1	F19FS_6344	NIMH-ChEFS
231.376	1	2.5	Congruent	n/a	FEAR	FEAR	FEAR	0.524	1	M8FA_5885	NIMH-ChEFS
234.925	1	3	Incongruent	pCI	HAPPY	FEAR	HAPPY	0.716	1	F32HS_7996	NIMH-ChEFS
238.996	1	3.5	Incongruent	pII	HAPPY	FEAR	HAPPY	1.098	1	M19HA_9066	NIMH-ChEFS
243.543	1	4	Congruent	n/a	FEAR	FEAR	FEAR	0.521	1	M3FS_4775	NIMH-ChEFS
248.616	1	3	Congruent	n/a	HAPPY	HAPPY	HAPPY	0.434	1	F3HA_3545	NIMH-ChEFS
252.689	1	3.5	Incongruent	pCI	FEAR	HAPPY	FEAR	0.575	1	M9FA_6121	NIMH-ChEFS
257.238	1	2	Incongruent	pII	FEAR	HAPPY	FEAR	0.757	1	F14FA_5638	NIMH-ChEFS
260.287	1	2.5	Congruent	n/a	HAPPY	HAPPY	HAPPY	0.443	1	M6HS_5354	NIMH-ChEFS
263.837	1	3	Congruent	n/a	HAPPY	HAPPY	HAPPY	0.487	1	F21HS_6544	NIMH-ChEFS
267.909	1	2	Incongruent	pCI	FEAR	HAPPY	FEAR	0.462	1	M17FS_8783	NIMH-ChEFS
270.953	1	2.5	Incongruent	pII	HAPPY	FEAR	HAPPY	0.459	1	F37HA_8965	NIMH-ChEFS
274.525	1	4	Congruent	n/a	HAPPY	HAPPY	HAPPY	0.655	1	M12HA_7030	NIMH-ChEFS
279.591	1	3.5	Congruent	n/a	FEAR	FEAR	FEAR	0.588	1	F31FS_7861	NIMH-ChEFS
284.162	1	2	Incongruent	pCI	FEAR	HAPPY	FEAR	0.678	1	F3FA_3605	NIMH-ChEFS
287.208	1	3.5	Incongruent	pII	HAPPY	FEAR	HAPPY	0.602	1	M3HS_4695	NIMH-ChEFS
291.756	1	3	Congruent	n/a	FEAR	FEAR	FEAR	0.903	1	M11FA_6969	NIMH-ChEFS
295.826	1	4	Congruent	n/a	HAPPY	HAPPY	HAPPY	0.559	1	F14HS_5590	NIMH-ChEFS
300.875	1	2.5	Incongruent	pCI	FEAR	HAPPY	FEAR	0.735	1	M12FS_7070	NIMH-ChEFS
304.423	1	3	Incongruent	pII	FEAR	HAPPY	FEAR	0.83	1	F6FS_3906	NIMH-ChEFS
308.468	1	4	Congruent	n/a	HAPPY	HAPPY	HAPPY	0.439	1	M7HA_5500	NIMH-ChEFS
313.514	1	2	Congruent	n/a	FEAR	FEAR	FEAR	0.883	1	F23FA_7228	NIMH-ChEFS
316.558	1	3.5	Incongruent	pCI	HAPPY	FEAR	HAPPY	1.165	1	F31HA_8583	NIMH-ChEFS
321.13	1	2.5	Incongruent	pII	HAPPY	FEAR	HAPPY	0.671	1	M11HS_6885	NIMH-ChEFS
324.675	1	2	Congruent	n/a	FEAR	FEAR	FEAR	0.825	1	M3FA_4789	NIMH-ChEFS
327.745	1	4	Congruent	n/a	FEAR	FEAR	FEAR	0.677	1	F34FS_8257	NIMH-ChEFS
332.789	1	3	Incongruent	pCI	HAPPY	FEAR	HAPPY	0.65	1	M17HS_8732	NIMH-ChEFS
336.837	1	3.5	Incongruent	pII	FEAR	HAPPY	FEAR	0.72	1	F7FA_4040	NIMH-ChEFS
341.386	1	2.5	Congruent	n/a	HAPPY	HAPPY	HAPPY	0.485	1	F10HS_4372	NIMH-ChEFS
344.934	1	4	Congruent	n/a	FEAR	FEAR	FEAR	0.726	1	M1FS_4325	NIMH-ChEFS
350.005	1	3.5	Incongruent	pCI	FEAR	HAPPY	FEAR	1.065	1	M6_1FA_5445	NIMH-ChEFS
354.575	1	2.5	Incongruent	pII	HAPPY	FEAR	HAPPY	0.586	1	F35HA_8422	NIMH-ChEFS
358.126	1	2	Congruent	n/a	HAPPY	HAPPY	HAPPY	0.559	1	M16HA_8638	NIMH-ChEFS
361.197	1	3	Congruent	n/a	FEAR	FEAR	FEAR	0.663	1	F12FS_5036	NIMH-ChEFS
365.24	1	2	Incongruent	pCI	HAPPY	FEAR	HAPPY	0.756	1	F1HS_3423	NIMH-ChEFS
368.285	1	2.5	Incongruent	pII	FEAR	HAPPY	FEAR	0.728	1	M7FA_5539	NIMH-ChEFS
371.855	1	3	Congruent	n/a	FEAR	FEAR	FEAR	0.729	1	F34FA_8267	NIMH-ChEFS
375.929	1	3.5	Congruent	n/a	HAPPY	HAPPY	HAPPY	0.692	1	M8HS_5817	NIMH-ChEFS
380.477	1	4	Incongruent	pCI	FEAR	HAPPY	FEAR	0.627	1	F23FS_7205	NIMH-ChEFS
385.524	1	4	Incongruent	pII	HAPPY	FEAR	HAPPY	0.478	1	M1HA_4302	NIMH-ChEFS
390.573	1	3	Congruent	n/a	FEAR	FEAR	FEAR	0.683	1	M5FS_5188	NIMH-ChEFS
394.622	1	2.5	Congruent	n/a	HAPPY	HAPPY	HAPPY	0.525	1	F18HA_6193	NIMH-ChEFS
398.193	1	3.5	Incongruent	pCI	FEAR	HAPPY	FEAR	0.763	1	M20FA_9277	NIMH-ChEFS
402.741	1	2	Incongruent	pII	FEAR	HAPPY	HAPPY	0.532	0	F10FA_4434	NIMH-ChEFS
405.814	1	2	Congruent	n/a	HAPPY	HAPPY	HAPPY	0.591	1	F7HS_3986	NIMH-ChEFS
408.879	1	2.5	Congruent	n/a	HAPPY	HAPPY	HAPPY	0.841	1	M12HS_7022	NIMH-ChEFS
412.43	1	3.5	Incongruent	pCI	FEAR	HAPPY	FEAR	0.671	1	M7FS_5530	NIMH-ChEFS
416.978	1	4	Incongruent	pII	HAPPY	FEAR	HAPPY	1.201	1	F21HA_6550	NIMH-ChEFS
422.025	1	3	Congruent	n/a	HAPPY	HAPPY	HAPPY	0.713	1	M17HA_8742	NIMH-ChEFS
426.094	1	3.5	Congruent	n/a	FEAR	FEAR	FEAR	0.622	1	F39FS_9475	NIMH-ChEFS
430.641	1	3	Incongruent	pCI	HAPPY	FEAR	HAPPY	0.907	1	M11HA_6890	NIMH-ChEFS
434.711	1	2	Incongruent	pII	FEAR	HAPPY	FEAR	0.772	1	F19FA_6353	NIMH-ChEFS
437.781	1	4	Congruent	n/a	FEAR	FEAR	FEAR	0.686	1	M15FA_8374	NIMH-ChEFS
442.833	1	2.5	Congruent	n/a	HAPPY	HAPPY	HAPPY	0.519	1	F13HS_5255	NIMH-ChEFS
446.38	1	3.5	Incongruent	pCI	HAPPY	FEAR	HAPPY	0.687	1	M20HS_9191	NIMH-ChEFS
450.951	1	2	Incongruent	pII	FEAR	HAPPY	FEAR	0.636	1	M6FS_5422	NIMH-ChEFS
453.998	1	4	Congruent	n/a	HAPPY	HAPPY	HAPPY	0.785	1	F16HA_5934	NIMH-ChEFS
459.042	1	2.5	Congruent	n/a	FEAR	FEAR	FEAR	0.852	1	M18FA_8913	NIMH-ChEFS
462.588	1	3	Incongruent	pCI	HAPPY	FEAR	HAPPY	0.904	1	F39HS_9426	NIMH-ChEFS
466.639	1	2.5	Incongruent	pII	FEAR	HAPPY	FEAR	0.809	1	F3FS_3596	NIMH-ChEFS
470.209	1	4	Congruent	n/a	FEAR	FEAR	FEAR	0.747	1	M8FS_5869	NIMH-ChEFS
475.257	1	3.5	Congruent	n/a	HAPPY	HAPPY	HAPPY	0.492	1	M4HS_4862	NIMH-ChEFS
479.824	1	2	Incongruent	pCI	HAPPY	FEAR	HAPPY	0.835	1	F2HA_3451	NIMH-ChEFS
482.895	1	3	Incongruent	pII	HAPPY	FEAR	HAPPY	0.859	1	M10HA_6772	NIMH-ChEFS
486.942	1	4	Congruent	n/a	FEAR	FEAR	FEAR	0.442	1	F18FS_6229	NIMH-ChEFS
492.013	1	3.5	Congruent	n/a	HAPPY	HAPPY	HAPPY	0.648	1	F31HS_8581	NIMH-ChEFS
496.562	1	2.5	Incongruent	pCI	FEAR	HAPPY	FEAR	0.745	1	M12FA_7082	NIMH-ChEFS
500.131	1	3	Incongruent	pII	HAPPY	FEAR	HAPPY	0.781	1	F12HA_5004	NIMH-ChEFS
504.174	1	2	Congruent	n/a	FEAR	FEAR	FEAR	0.659	1	F6FA_3922	NIMH-ChEFS
507.223	1	2.5	Congruent	n/a	HAPPY	HAPPY	HAPPY	0.688	1	M5HS_5134	NIMH-ChEFS
510.796	1	3	Incongruent	pCI	HAPPY	FEAR	HAPPY	0.671	1	M14HS_7912	NIMH-ChEFS
514.866	1	3.5	Incongruent	pII	FEAR	HAPPY	FEAR	0.751	1	F32FS_8041	NIMH-ChEFS
519.411	1	2	Congruent	n/a	FEAR	FEAR	FEAR	0.693	1	M19FA_9129	NIMH-ChEFS
522.456	1	4	Congruent	n/a	HAPPY	HAPPY	HAPPY	0.682	1	F34HS_8209	NIMH-ChEFS
527.502	1	4	Incongruent	pCI	HAPPY	FEAR	FEAR	0.769	0	M18HA_8854	NIMH-ChEFS
532.55	1	2	Incongruent	pII	FEAR	HAPPY	FEAR	0.704	1	F16FA_5992	NIMH-ChEFS
535.595	1	2.5	Congruent	n/a	FEAR	FEAR	FEAR	0.792	1	F37FS_9007	NIMH-ChEFS
539.165	1	3.5	Congruent	n/a	HAPPY	HAPPY	HAPPY	0.84	1	M3HA_4707	NIMH-ChEFS
543.737	1	3	Incongruent	pCI	FEAR	HAPPY	FEAR	0.759	1	M15FS_8364	NIMH-ChEFS
547.787	1	3.5	Incongruent	pII	FEAR	HAPPY	FEAR	1.234	1	F13FA_5314	NIMH-ChEFS
552.356	1	4	Congruent	n/a	HAPPY	HAPPY	HAPPY	0.922	1	F14HA_5595	NIMH-ChEFS
557.425	1	2	Congruent	n/a	FEAR	FEAR	FEAR	1.498	1	M5FA_5198	NIMH-ChEFS
560.469	1	3	Incongruent	pCI	FEAR	HAPPY	HAPPY	0.473	0	F2FA_3491	NIMH-ChEFS
564.514	1	2.5	Incongruent	pII	HAPPY	FEAR	HAPPY	0.553	1	F23HS_7148	NIMH-ChEFS
568.085	1	3	Congruent	n/a	FEAR	FEAR	FEAR	0.656	1	M18FS_8888	NIMH-ChEFS
572.153	1	2.5	Congruent	n/a	HAPPY	HAPPY	HAPPY	0.545	1	F30HA_8500	NIMH-ChEFS
575.699	1	2	Incongruent	pCI	HAPPY	FEAR	HAPPY	0.603	1	M7HS_5497	NIMH-ChEFS
578.769	1	3.5	Incongruent	pII	FEAR	HAPPY	FEAR	0.657	1	F14FS_5632	NIMH-ChEFS
583.319	1	4	Congruent	n/a	HAPPY	HAPPY	HAPPY	0.526	1	M2HA_4506	NIMH-ChEFS
588.391	1	3	Congruent	n/a	FEAR	FEAR	FEAR	0.563	1	F21FA_6608	NIMH-ChEFS
592.439	1	4	Incongruent	pCI	HAPPY	FEAR	HAPPY	0.602	1	F6HS_3875	NIMH-ChEFS
597.481	1	3.5	Incongruent	pII	HAPPY	FEAR	HAPPY	0.587	1	M19HS_9059	NIMH-ChEFS
602.052	1	2	Congruent	n/a	FEAR	FEAR	FEAR	0.708	1	F4FS_3704	NIMH-ChEFS
605.126	1	2.5	Congruent	n/a	HAPPY	HAPPY	HAPPY	0.595	1	F32HA_7998	NIMH-ChEFS
608.673	1	4	Incongruent	pCI	HAPPY	FEAR	HAPPY	0.624	1	M6HA_5360	NIMH-ChEFS
613.747	1	3.5	Incongruent	pII	FEAR	HAPPY	FEAR	0.722	1	M16FA_8681	NIMH-ChEFS
618.317	1	2	Congruent	n/a	HAPPY	HAPPY	HAPPY	0.676	1	F19HS_6297	NIMH-ChEFS
621.363	1	3	Congruent	n/a	FEAR	FEAR	FEAR	0.642	1	F35FA_8465	NIMH-ChEFS
625.412	1	2.5	Incongruent	pCI	FEAR	HAPPY	FEAR	0.881	1	M4FS_4935	NIMH-ChEFS
628.983	1	3.5	Incongruent	pII	HAPPY	FEAR	HAPPY	0.478	1	F37HS_8954	NIMH-ChEFS
633.523	1	2.5	Congruent	n/a	FEAR	FEAR	FEAR	0.874	1	F30FS_8546	NIMH-ChEFS
637.07	1	4	Congruent	n/a	HAPPY	HAPPY	HAPPY	0.92	1	M9HS_6054	NIMH-ChEFS
642.14	1	2	Incongruent	pCI	FEAR	HAPPY	FEAR	0.732	1	F31FA_7873	NIMH-ChEFS
645.208	1	3	Incongruent	pII	HAPPY	FEAR	HAPPY	0.658	1	F4HA_3668	NIMH-ChEFS
649.252	1	2	Congruent	n/a	HAPPY	HAPPY	HAPPY	0.723	1	M15HA_8321	NIMH-ChEFS
652.3	1	4	Incongruent	pCI	HAPPY	FEAR	HAPPY	0.837	1	F3HS_3540	NIMH-ChEFS
657.347	1	3.5	Incongruent	pII	FEAR	HAPPY	FEAR	0.499	1	M20FS_9236	NIMH-ChEFS
