onset	duration	interstimulus_interval	trial_type	trial_type_2	target_condition	distractor	response	response_time	correct	identifier	database
0.06	1	3.5	Congruent	n/a	FEAR	FEAR	FEAR	0.619	1	M9FS_6104	NIMH-ChEFS
4.624	1	2	Congruent	n/a	HAPPY	HAPPY	HAPPY	0.573	1	F13HA_5265	NIMH-ChEFS
7.679	1	2.5	Incongruent	pCI	HAPPY	FEAR	HAPPY	0.663	1	M4HA_4877	NIMH-ChEFS
11.24	1	3	Incongruent	pII	FEAR	HAPPY	FEAR	0.716	1	F7FS_4016	NIMH-ChEFS
15.317	1	4	Congruent	n/a	HAPPY	HAPPY	HAPPY	0.452	1	F30HS_8495	NIMH-ChEFS
20.367	1	3	Congruent	n/a	FEAR	FEAR	FEAR	0.623	1	M4FA_4941	NIMH-ChEFS
24.415	1	4	Incongruent	pCI	FEAR	HAPPY	HAPPY	0.669	0	F32FA_8053	NIMH-ChEFS
29.463	1	3.5	Incongruent	pII	HAPPY	FEAR	HAPPY	0.773	1	M10HS_6767	NIMH-ChEFS
34.014	1	2.5	Congruent	n/a	HAPPY	HAPPY	HAPPY	0.744	1	F23HA_7156	NIMH-ChEFS
37.562	1	2	Congruent	n/a	FEAR	FEAR	FEAR	0.597	1	F13FS_5292	NIMH-ChEFS
40.61	1	2	Incongruent	pCI	HAPPY	FEAR	HAPPY	0.657	1	F4HS_3664	NIMH-ChEFS
43.658	1	3	Incongruent	pII	HAPPY	FEAR	HAPPY	0.912	1	M20HA_9192	NIMH-ChEFS
47.705	1	4	Congruent	n/a	FEAR	FEAR	FEAR	0.677	1	F18FA_6243	NIMH-ChEFS
52.755	1	2.5	Congruent	n/a	HAPPY	HAPPY	HAPPY	0.511	1	M18HS_8848	NIMH-ChEFS
56.303	1	3.5	Incongruent	pCI	FEAR	HAPPY	FEAR	0.669	1	M14FS_7958	NIMH-ChEFS
60.851	1	3	Incongruent	pII	HAPPY	FEAR	HAPPY	1.02	1	F39HA_9433	NIMH-ChEFS
64.899	1	4	Congruent	n/a	FEAR	FEAR	FEAR	0.628	1	M10_FA_6823	NIMH-ChEFS
69.948	1	2	Congruent	n/a	HAPPY	HAPPY	HAPPY	0.721	1	F12HS_5000	NIMH-ChEFS
72.997	1	2.5	Incongruent	pCI	FEAR	HAPPY	FEAR	0.868	1	M17FA_8799	NIMH-ChEFS
76.547	1	3.5	Incongruent	pII	FEAR	HAPPY	FEAR	0.867	1	F2FS_3470	NIMH-ChEFS
81.096	1	2	Congruent	n/a	HAPPY	HAPPY	HAPPY	0.614	1	M14HA_7913	NIMH-ChEFS
84.146	1	3	Congruent	n/a	HAPPY	HAPPY	HAPPY	0.644	1	F7HA_3985	NIMH-ChEFS
88.191	1	2.5	Incongruent	pCI	FEAR	HAPPY	FEAR	1.082	1	M2FS_4636	NIMH-ChEFS
91.739	1	4	Incongruent	pII	HAPPY	FEAR	HAPPY	0.491	1	F18HS_6186	NIMH-ChEFS
96.787	1	3.5	Congruent	n/a	FEAR	FEAR	FEAR	0.555	1	F39FA_9489	NIMH-ChEFS
101.338	1	4	Congruent	n/a	HAPPY	HAPPY	HAPPY	0.496	1	M2HS_4493	NIMH-ChEFS
106.388	1	2	Incongruent	pCI	HAPPY	FEAR	FEAR	0.492	0	F1HA_3424	NIMH-ChEFS
109.44	1	2.5	Incongruent	pII	FEAR	HAPPY	FEAR	0.787	1	M6FA__5449	NIMH-ChEFS
112.988	1	3.5	Congruent	n/a	FEAR	FEAR	FEAR	0.732	1	M19FS_9117	NIMH-ChEFS
117.569	1	3	Congruent	n/a	HAPPY	HAPPY	HAPPY	0.55	1	F35HS_8418	NIMH-ChEFS
121.613	1	3.5	Incongruent	pCI	FEAR	HAPPY	FEAR	0.751	1	F16FS_5978	NIMH-ChEFS
126.162	1	4	Incongruent	pII	FEAR	HAPPY	HAPPY	0.625	0	M1FA_4336	NIMH-ChEFS
131.21	1	2.5	Congruent	n/a	HAPPY	HAPPY	HAPPY	0.799	1	M9HA_6057	NIMH-ChEFS
134.757	1	2	Congruent	n/a	FEAR	FEAR	FEAR	0.658	1	F4FA_3712	NIMH-ChEFS
137.805	1	3	Incongruent	pCI	HAPPY	FEAR	HAPPY	0.504	1	M15HS_8316	NIMH-ChEFS
141.854	1	2.5	Incongruent	pII	FEAR	HAPPY	FEAR	0.478	1	F21FS_6587	NIMH-ChEFS
145.403	1	3.5	Congruent	n/a	HAPPY	HAPPY	HAPPY	0.511	1	F19HA_6311	NIMH-ChEFS
149.951	1	2	Congruent	n/a	FEAR	FEAR	FEAR	0.53	1	M10_4FS_6817	NIMH-ChEFS
152.997	1	4	Incongruent	pCI	HAPPY	FEAR	HAPPY	0.653	1	F2HS_3448	NIMH-ChEFS
158.046	1	3	Incongruent	pII	HAPPY	FEAR	HAPPY	0.661	1	F10HA_4379	NIMH-ChEFS
162.094	1	2	Congruent	n/a	FEAR	FEAR	FEAR	0.93	1	M14FA_7960	NIMH-ChEFS
165.141	1	4	Congruent	n/a	FEAR	FEAR	FEAR	0.841	1	F30FA_8552	NIMH-ChEFS
170.19	1	3.5	Incongruent	pCI	HAPPY	FEAR	HAPPY	0.626	1	M8HA_5828	NIMH-ChEFS
174.739	1	3	Incongruent	pII	FEAR	HAPPY	FEAR	0.916	1	F35FS_8451	NIMH-ChEFS
178.789	1	2.5	Congruent	n/a	HAPPY	HAPPY	HAPPY	0.568	1	M1HS_4301	NIMH-ChEFS
182.336	1	3	Congruent	n/a	FEAR	FEAR	FEAR	0.619	1	F37FA_9020	NIMH-ChEFS
186.382	1	2	Incongruent	pCI	FEAR	HAPPY	HAPPY	0.547	0	M11FS_6953	NIMH-ChEFS
189.43	1	3.5	Incongruent	pII	HAPPY	FEAR	FEAR	0.663	0	F34HA_8219	NIMH-ChEFS
193.977	1	4	Congruent	n/a	FEAR	FEAR	FEAR	0.616	1	F10FS_4426	NIMH-ChEFS
199.027	1	2.5	Congruent	n/a	HAPPY	HAPPY	HAPPY	0.622	1	M16HS_8633	NIMH-ChEFS
202.575	1	2	Incongruent	pCI	HAPPY	FEAR	HAPPY	0.772	1	M5HA_5140	NIMH-ChEFS
205.625	1	4	Incongruent	pII	FEAR	HAPPY	FEAR	0.628	1	F12FA_5062	NIMH-ChEFS
210.675	1	3.5	Congruent	n/a	HAPPY	HAPPY	HAPPY	0.587	1	F16HS_5924	NIMH-ChEFS
215.227	1	3	Congruent	n/a	FEAR	FEAR	FEAR	0.684	1	M2FA_4644	NIMH-ChEFS
219.276	1	2.5	Incongruent	pCI	FEAR	HAPPY	HAPPY	0.638	0	M16FS_8676	NIMH-ChEFS
222.825	1	3.5	Incongruent	pII	HAPPY	FEAR	HAPPY	0.829	1	F6HA_3882	NIMH-ChEFS
227.371	1	2	Congruent	n/a	FEAR	FEAR	FEAR	0.705	1	F19FS_6344	NIMH-ChEFS
230.419	1	2.5	Congruent	n/a	FEAR	FEAR	FEAR	0.787	1	M8FA_5885	NIMH-ChEFS
233.968	1	4	Incongruent	pCI	HAPPY	FEAR	HAPPY	0.744	1	F32HS_7996	NIMH-ChEFS
239.015	1	3	Incongruent	pII	HAPPY	FEAR	HAPPY	0.685	1	M19HA_9066	NIMH-ChEFS
243.063	1	4	Congruent	n/a	FEAR	FEAR	FEAR	0.622	1	M3FS_4775	NIMH-ChEFS
248.113	1	2	Congruent	n/a	HAPPY	HAPPY	HAPPY	0.585	1	F3HA_3545	NIMH-ChEFS
251.163	1	2.5	Incongruent	pCI	FEAR	HAPPY	FEAR	0.802	1	M9FA_6121	NIMH-ChEFS
254.712	1	3.5	Incongruent	pII	FEAR	HAPPY	FEAR	0.799	1	F14FA_5638	NIMH-ChEFS
259.261	1	3	Congruent	n/a	HAPPY	HAPPY	HAPPY	0.576	1	M6HS_5354	NIMH-ChEFS
263.31	1	2	Congruent	n/a	HAPPY	HAPPY	HAPPY	0.486	1	F21HS_6544	NIMH-ChEFS
266.359	1	3.5	Incongruent	pCI	FEAR	HAPPY	FEAR	0.641	1	M17FS_8783	NIMH-ChEFS
270.906	1	3	Incongruent	pII	HAPPY	FEAR	HAPPY	0.699	1	F37HA_8965	NIMH-ChEFS
274.955	1	2.5	Congruent	n/a	HAPPY	HAPPY	HAPPY	0.615	1	M12HA_7030	NIMH-ChEFS
278.499	1	4	Congruent	n/a	FEAR	FEAR	FEAR	0.607	1	F31FS_7861	NIMH-ChEFS
283.549	1	4	Incongruent	pCI	FEAR	HAPPY	FEAR	0.7	1	F3FA_3605	NIMH-ChEFS
288.596	1	3	Incongruent	pII	HAPPY	FEAR	HAPPY	0.855	1	M3HS_4695	NIMH-ChEFS
292.642	1	3.5	Congruent	n/a	FEAR	FEAR	FEAR	0.614	1	M11FA_6969	NIMH-ChEFS
297.191	1	2.5	Congruent	n/a	HAPPY	HAPPY	HAPPY	0.633	1	F14HS_5590	NIMH-ChEFS
300.739	1	2	Incongruent	pCI	FEAR	HAPPY	FEAR	0.785	1	M12FS_7070	NIMH-ChEFS
303.789	1	2	Incongruent	pII	FEAR	HAPPY	FEAR	0.91	1	F6FS_3906	NIMH-ChEFS
306.839	1	3	Congruent	n/a	HAPPY	HAPPY	HAPPY	0.473	1	M7HA_5500	NIMH-ChEFS
310.887	1	2.5	Congruent	n/a	FEAR	FEAR	FEAR	0.629	1	F23FA_7228	NIMH-ChEFS
314.433	1	4	Incongruent	pCI	HAPPY	FEAR	HAPPY	0.842	1	F31HA_8583	NIMH-ChEFS
319.481	1	3.5	Incongruent	pII	HAPPY	FEAR	HAPPY	0.778	1	M11HS_6885	NIMH-ChEFS
324.03	1	3.5	Congruent	n/a	FEAR	FEAR	FEAR	0.653	1	M3FA_4789	NIMH-ChEFS
328.578	1	2	Congruent	n/a	FEAR	FEAR	FEAR	0.591	1	F34FS_8257	NIMH-ChEFS
331.628	1	2.5	Incongruent	pCI	HAPPY	FEAR	HAPPY	1.039	1	M17HS_8732	NIMH-ChEFS
335.177	1	3	Incongruent	pII	FEAR	HAPPY	HAPPY	0.647	0	F7FA_4040	NIMH-ChEFS
339.231	1	4	Congruent	n/a	HAPPY	HAPPY	HAPPY	0.659	1	F10HS_4372	NIMH-ChEFS
344.279	1	2	Congruent	n/a	FEAR	FEAR	FEAR	0.598	1	M1FS_4325	NIMH-ChEFS
347.333	1	4	Incongruent	pCI	FEAR	HAPPY	FEAR	0.776	1	M6_1FA_5445	NIMH-ChEFS
352.381	1	3.5	Incongruent	pII	HAPPY	FEAR	HAPPY	0.736	1	F35HA_8422	NIMH-ChEFS
356.93	1	2.5	Congruent	n/a	HAPPY	HAPPY	HAPPY	0.709	1	M16HA_8638	NIMH-ChEFS
360.475	1	3	Congruent	n/a	FEAR	FEAR	FEAR	0.639	1	F12FS_5036	NIMH-ChEFS
364.523	1	3.5	Incongruent	pCI	HAPPY	FEAR	FEAR	1.053	0	F1HS_3423	NIMH-ChEFS
369.071	1	3	Incongruent	pII	FEAR	HAPPY	FEAR	0.53	1	M7FA_5539	NIMH-ChEFS
373.143	1	2	Congruent	n/a	FEAR	FEAR	FEAR	0.549	1	F34FA_8267	NIMH-ChEFS
376.192	1	2.5	Congruent	n/a	HAPPY	HAPPY	HAPPY	0.588	1	M8HS_5817	NIMH-ChEFS
379.741	1	4	Incongruent	pCI	FEAR	HAPPY	FEAR	0.714	1	F23FS_7205	NIMH-ChEFS
384.788	1	3.5	Incongruent	pII	HAPPY	FEAR	HAPPY	0.925	1	M1HA_4302	NIMH-ChEFS
389.336	1	4	Congruent	n/a	FEAR	FEAR	FEAR	0.362	1	M5FS_5188	NIMH-ChEFS
394.385	1	3	Congruent	n/a	HAPPY	HAPPY	HAPPY	0.555	1	F18HA_6193	NIMH-ChEFS
398.434	1	2.5	Incongruent	pCI	FEAR	HAPPY	FEAR	0.677	1	M20FA_9277	NIMH-ChEFS
402.009	1	2	Incongruent	pII	FEAR	HAPPY	FEAR	0.643	1	F10FA_4434	NIMH-ChEFS
405.058	1	3.5	Congruent	n/a	HAPPY	HAPPY	HAPPY	0.582	1	F7HS_3986	NIMH-ChEFS
409.605	1	4	Congruent	n/a	HAPPY	HAPPY	HAPPY	0.871	1	M12HS_7022	NIMH-ChEFS
414.659	1	2.5	Incongruent	pCI	FEAR	HAPPY	HAPPY	0.546	0	M7FS_5530	NIMH-ChEFS
418.206	1	3	Incongruent	pII	HAPPY	FEAR	HAPPY	0.813	1	F21HA_6550	NIMH-ChEFS
422.254	1	2	Congruent	n/a	HAPPY	HAPPY	HAPPY	0.613	1	M17HA_8742	NIMH-ChEFS
425.305	1	3.5	Congruent	n/a	FEAR	FEAR	FEAR	0.601	1	F39FS_9475	NIMH-ChEFS
429.855	1	2	Incongruent	pCI	HAPPY	FEAR	FEAR	0.562	0	M11HA_6890	NIMH-ChEFS
432.904	1	2.5	Incongruent	pII	FEAR	HAPPY	FEAR	0.747	1	F19FA_6353	NIMH-ChEFS
436.452	1	3	Congruent	n/a	FEAR	FEAR	FEAR	0.745	1	M15FA_8374	NIMH-ChEFS
440.5	1	4	Congruent	n/a	HAPPY	HAPPY	HAPPY	0.554	1	F13HS_5255	NIMH-ChEFS
445.543	1	2	Incongruent	pCI	HAPPY	FEAR	HAPPY	0.502	1	M20HS_9191	NIMH-ChEFS
448.592	1	2.5	Incongruent	pII	FEAR	HAPPY	FEAR	0.703	1	M6FS_5422	NIMH-ChEFS
452.163	1	3	Congruent	n/a	HAPPY	HAPPY	HAPPY	0.542	1	F16HA_5934	NIMH-ChEFS
456.211	1	3.5	Congruent	n/a	FEAR	FEAR	FEAR	0.687	1	M18FA_8913	NIMH-ChEFS
460.761	1	4	Incongruent	pCI	HAPPY	FEAR	FEAR	0.48	0	F39HS_9426	NIMH-ChEFS
465.81	1	4	Incongruent	pII	FEAR	HAPPY	FEAR	0.853	1	F3FS_3596	NIMH-ChEFS
470.858	1	2.5	Congruent	n/a	FEAR	FEAR	FEAR	0.561	1	M8FS_5869	NIMH-ChEFS
474.409	1	2	Congruent	n/a	HAPPY	HAPPY	HAPPY	0.729	1	M4HS_4862	NIMH-ChEFS
477.457	1	3	Incongruent	pCI	HAPPY	FEAR	FEAR	0.602	0	F2HA_3451	NIMH-ChEFS
481.505	1	3.5	Incongruent	pII	HAPPY	FEAR	HAPPY	1.24	1	M10HA_6772	NIMH-ChEFS
486.052	1	3	Congruent	n/a	FEAR	FEAR	FEAR	0.548	1	F18FS_6229	NIMH-ChEFS
490.103	1	3.5	Congruent	n/a	HAPPY	HAPPY	HAPPY	0.592	1	F31HS_8581	NIMH-ChEFS
494.658	1	4	Incongruent	pCI	FEAR	HAPPY	FEAR	0.991	1	M12FA_7082	NIMH-ChEFS
499.734	1	2.5	Incongruent	pII	HAPPY	FEAR	HAPPY	0.521	1	F12HA_5004	NIMH-ChEFS
503.283	1	2	Congruent	n/a	FEAR	FEAR	FEAR	0.511	1	F6FA_3922	NIMH-ChEFS
506.334	1	3.5	Congruent	n/a	HAPPY	HAPPY	HAPPY	0.669	1	M5HS_5134	NIMH-ChEFS
510.908	1	2	Incongruent	pCI	HAPPY	FEAR	FEAR	0.503	0	M14HS_7912	NIMH-ChEFS
513.957	1	3	Incongruent	pII	FEAR	HAPPY	FEAR	0.94	1	F32FS_8041	NIMH-ChEFS
518.005	1	4	Congruent	n/a	FEAR	FEAR	FEAR	0.589	1	M19FA_9129	NIMH-ChEFS
523.053	1	2.5	Congruent	n/a	HAPPY	HAPPY	HAPPY	0.526	1	F34HS_8209	NIMH-ChEFS
526.598	1	3	Incongruent	pCI	HAPPY	FEAR	FEAR	0.598	0	M18HA_8854	NIMH-ChEFS
530.645	1	2	Incongruent	pII	FEAR	HAPPY	FEAR	0.567	1	F16FA_5992	NIMH-ChEFS
533.689	1	2.5	Congruent	n/a	FEAR	FEAR	FEAR	0.593	1	F37FS_9007	NIMH-ChEFS
537.254	1	3.5	Congruent	n/a	HAPPY	HAPPY	HAPPY	0.57	1	M3HA_4707	NIMH-ChEFS
541.799	1	4	Incongruent	pCI	FEAR	HAPPY	HAPPY	0.631	0	M15FS_8364	NIMH-ChEFS
546.845	1	2	Incongruent	pII	FEAR	HAPPY	FEAR	0.88	1	F13FA_5314	NIMH-ChEFS
549.913	1	3.5	Congruent	n/a	HAPPY	HAPPY	HAPPY	0.511	1	F14HA_5595	NIMH-ChEFS
554.48	1	2.5	Congruent	n/a	FEAR	FEAR	FEAR	0.452	1	M5FA_5198	NIMH-ChEFS
558.026	1	3	Incongruent	pCI	FEAR	HAPPY	HAPPY	0.461	0	F2FA_3491	NIMH-ChEFS
562.093	1	4	Incongruent	pII	HAPPY	FEAR	FEAR	0.377	0	F23HS_7148	NIMH-ChEFS
567.159	1	3	Congruent	n/a	FEAR	FEAR	FEAR	0.521	1	M18FS_8888	NIMH-ChEFS
571.23	1	4	Congruent	n/a	HAPPY	HAPPY	HAPPY	0.639	1	F30HA_8500	NIMH-ChEFS
576.299	1	3.5	Incongruent	pCI	HAPPY	FEAR	HAPPY	0.633	1	M7HS_5497	NIMH-ChEFS
580.85	1	2.5	Incongruent	pII	FEAR	HAPPY	FEAR	0.495	1	F14FS_5632	NIMH-ChEFS
584.42	1	2	Congruent	n/a	HAPPY	HAPPY	HAPPY	0.671	1	M2HA_4506	NIMH-ChEFS
587.484	1	4	Congruent	n/a	FEAR	FEAR	FEAR	0.593	1	F21FA_6608	NIMH-ChEFS
592.554	1	2.5	Incongruent	pCI	HAPPY	FEAR	HAPPY	0.725	1	F6HS_3875	NIMH-ChEFS
596.098	1	3.5	Incongruent	pII	HAPPY	FEAR	FEAR	0.574	0	M19HS_9059	NIMH-ChEFS
600.645	1	2	Congruent	n/a	FEAR	FEAR	FEAR	0.57	1	F4FS_3704	NIMH-ChEFS
603.689	1	3	Congruent	n/a	HAPPY	HAPPY	HAPPY	0.77	1	F32HA_7998	NIMH-ChEFS
607.735	1	2	Incongruent	pCI	HAPPY	FEAR	HAPPY	0.78	1	M6HA_5360	NIMH-ChEFS
610.78	1	2.5	Incongruent	pII	FEAR	HAPPY	FEAR	0.657	1	M16FA_8681	NIMH-ChEFS
614.347	1	3	Congruent	n/a	HAPPY	HAPPY	HAPPY	0.427	1	F19HS_6297	NIMH-ChEFS
618.416	1	4	Congruent	n/a	FEAR	FEAR	FEAR	0.603	1	F35FA_8465	NIMH-ChEFS
623.487	1	3.5	Incongruent	pCI	FEAR	HAPPY	FEAR	0.482	1	M4FS_4935	NIMH-ChEFS
628.027	1	3.5	Incongruent	pII	HAPPY	FEAR	HAPPY	0.754	1	F37HS_8954	NIMH-ChEFS
632.596	1	4	Congruent	n/a	FEAR	FEAR	FEAR	0.765	1	F30FS_8546	NIMH-ChEFS
637.65	1	3	Congruent	n/a	HAPPY	HAPPY	HAPPY	0.615	1	M9HS_6054	NIMH-ChEFS
641.696	1	2.5	Incongruent	pCI	FEAR	HAPPY	FEAR	0.585	1	F31FA_7873	NIMH-ChEFS
645.24	1	2	Incongruent	pII	HAPPY	FEAR	HAPPY	0.507	1	F4HA_3668	NIMH-ChEFS
648.286	1	4	Congruent	n/a	HAPPY	HAPPY	HAPPY	0.572	1	M15HA_8321	NIMH-ChEFS
653.332	1	2	Incongruent	pCI	HAPPY	FEAR	HAPPY	0.516	1	F3HS_3540	NIMH-ChEFS
656.403	1	2.5	Incongruent	pII	FEAR	HAPPY	FEAR	0.567	1	M20FS_9236	NIMH-ChEFS
