onset	duration	interstimulus_interval	trial_type	trial_type_2	target_condition	distractor	response	response_time	correct	identifier	database
0.053	1	3.5	Congruent	n/a	FEAR	FEAR	FEAR	1.597	1	M9FS_6104	NIMH-ChEFS
4.612	1	2	Congruent	n/a	HAPPY	HAPPY	HAPPY	0.653	1	F13HA_5265	NIMH-ChEFS
7.664	1	2.5	Incongruent	pCI	HAPPY	FEAR	HAPPY	0.854	1	M4HA_4877	NIMH-ChEFS
11.226	1	3	Incongruent	pII	FEAR	HAPPY	FEAR	0.819	1	F7FS_4016	NIMH-ChEFS
15.275	1	4	Congruent	n/a	HAPPY	HAPPY	HAPPY	0.482	1	F30HS_8495	NIMH-ChEFS
20.32	1	2	Congruent	n/a	FEAR	FEAR	FEAR	0.722	1	M4FA_4941	NIMH-ChEFS
23.367	1	2.5	Incongruent	pCI	FEAR	HAPPY	FEAR	0.776	1	F32FA_8053	NIMH-ChEFS
26.914	1	3	Incongruent	pII	HAPPY	FEAR	FEAR	0.692	0	M10HS_6767	NIMH-ChEFS
30.962	1	3.5	Congruent	n/a	HAPPY	HAPPY	HAPPY	0.921	1	F23HA_7156	NIMH-ChEFS
35.512	1	4	Congruent	n/a	FEAR	FEAR	FEAR	1.012	1	F13FS_5292	NIMH-ChEFS
40.556	1	4	Incongruent	pCI	HAPPY	FEAR	HAPPY	0.668	1	F4HS_3664	NIMH-ChEFS
45.6	1	2.5	Incongruent	pII	HAPPY	FEAR	HAPPY	0.878	1	M20HA_9192	NIMH-ChEFS
49.146	1	2	Congruent	n/a	FEAR	FEAR	FEAR	0.801	1	F18FA_6243	NIMH-ChEFS
52.192	1	3	Congruent	n/a	HAPPY	HAPPY	HAPPY	0.643	1	M18HS_8848	NIMH-ChEFS
56.239	1	3.5	Incongruent	pCI	FEAR	HAPPY	FEAR	1.077	1	M14FS_7958	NIMH-ChEFS
60.783	1	3	Incongruent	pII	HAPPY	FEAR	HAPPY	0.646	1	F39HA_9433	NIMH-ChEFS
64.827	1	3.5	Congruent	n/a	FEAR	FEAR	FEAR	0.833	1	M10_FA_6823	NIMH-ChEFS
69.374	1	4	Congruent	n/a	HAPPY	HAPPY	HAPPY	0.67	1	F12HS_5000	NIMH-ChEFS
74.42	1	2.5	Incongruent	pCI	FEAR	HAPPY	FEAR	0.835	1	M17FA_8799	NIMH-ChEFS
77.967	1	2	Incongruent	pII	FEAR	HAPPY	FEAR	1.167	1	F2FS_3470	NIMH-ChEFS
81.037	1	3.5	Congruent	n/a	HAPPY	HAPPY	HAPPY	0.65	1	M14HA_7913	NIMH-ChEFS
85.583	1	2	Congruent	n/a	HAPPY	HAPPY	HAPPY	0.628	1	F7HA_3985	NIMH-ChEFS
88.63	1	3	Incongruent	pCI	FEAR	HAPPY	FEAR	0.729	1	M2FS_4636	NIMH-ChEFS
92.677	1	4	Incongruent	pII	HAPPY	FEAR	HAPPY	0.487	1	F18HS_6186	NIMH-ChEFS
97.723	1	2.5	Congruent	n/a	FEAR	FEAR	FEAR	0.88	1	F39FA_9489	NIMH-ChEFS
101.27	1	3	Congruent	n/a	HAPPY	HAPPY	HAPPY	0.671	1	M2HS_4493	NIMH-ChEFS
105.315	1	2	Incongruent	pCI	HAPPY	FEAR	HAPPY	0.868	1	F1HA_3424	NIMH-ChEFS
108.364	1	2.5	Incongruent	pII	FEAR	HAPPY	FEAR	0.812	1	M6FA__5449	NIMH-ChEFS
111.91	1	3.5	Congruent	n/a	FEAR	FEAR	FEAR	0.841	1	M19FS_9117	NIMH-ChEFS
116.457	1	4	Congruent	n/a	HAPPY	HAPPY	HAPPY	0.576	1	F35HS_8418	NIMH-ChEFS
121.504	1	2	Incongruent	pCI	FEAR	HAPPY	FEAR	0.889	1	F16FS_5978	NIMH-ChEFS
124.55	1	3.5	Incongruent	pII	FEAR	HAPPY	FEAR	0.916	1	M1FA_4336	NIMH-ChEFS
129.096	1	2.5	Congruent	n/a	HAPPY	HAPPY	HAPPY	0.695	1	M9HA_6057	NIMH-ChEFS
132.639	1	3	Congruent	n/a	FEAR	FEAR	FEAR	0.835	1	F4FA_3712	NIMH-ChEFS
136.685	1	4	Incongruent	pCI	HAPPY	FEAR	HAPPY	0.813	1	M15HS_8316	NIMH-ChEFS
141.733	1	3	Incongruent	pII	FEAR	HAPPY	FEAR	0.752	1	F21FS_6587	NIMH-ChEFS
145.78	1	4	Congruent	n/a	HAPPY	HAPPY	HAPPY	0.614	1	F19HA_6311	NIMH-ChEFS
150.827	1	3.5	Congruent	n/a	FEAR	FEAR	FEAR	0.764	1	M10_4FS_6817	NIMH-ChEFS
155.373	1	2.5	Incongruent	pCI	HAPPY	FEAR	HAPPY	0.653	1	F2HS_3448	NIMH-ChEFS
158.919	1	2	Incongruent	pII	HAPPY	FEAR	HAPPY	0.833	1	F10HA_4379	NIMH-ChEFS
161.965	1	4	Congruent	n/a	FEAR	FEAR	FEAR	0.877	1	M14FA_7960	NIMH-ChEFS
167.013	1	2.5	Congruent	n/a	FEAR	FEAR	FEAR	0.815	1	F30FA_8552	NIMH-ChEFS
170.559	1	3.5	Incongruent	pCI	HAPPY	FEAR	HAPPY	0.928	1	M8HA_5828	NIMH-ChEFS
175.128	1	2	Incongruent	pII	FEAR	HAPPY	FEAR	1.236	1	F35FS_8451	NIMH-ChEFS
178.175	1	3	Congruent	n/a	HAPPY	HAPPY	HAPPY	0.64	1	M1HS_4301	NIMH-ChEFS
182.22	1	2	Congruent	n/a	FEAR	FEAR	FEAR	0.932	1	F37FA_9020	NIMH-ChEFS
185.266	1	2.5	Incongruent	pCI	FEAR	HAPPY	FEAR	0.896	1	M11FS_6953	NIMH-ChEFS
188.813	1	3	Incongruent	pII	HAPPY	FEAR	HAPPY	0.707	1	F34HA_8219	NIMH-ChEFS
192.858	1	4	Congruent	n/a	FEAR	FEAR	FEAR	0.814	1	F10FS_4426	NIMH-ChEFS
197.905	1	3.5	Congruent	n/a	HAPPY	HAPPY	HAPPY	0.719	1	M16HS_8633	NIMH-ChEFS
202.451	1	3.5	Incongruent	pCI	HAPPY	FEAR	HAPPY	0.818	1	M5HA_5140	NIMH-ChEFS
206.998	1	4	Incongruent	pII	FEAR	HAPPY	FEAR	0.911	1	F12FA_5062	NIMH-ChEFS
212.045	1	3	Congruent	n/a	HAPPY	HAPPY	HAPPY	0.958	1	F16HS_5924	NIMH-ChEFS
216.09	1	2.5	Congruent	n/a	FEAR	FEAR	FEAR	1.03	1	M2FA_4644	NIMH-ChEFS
219.632	1	2	Incongruent	pCI	FEAR	HAPPY	FEAR	0.865	1	M16FS_8676	NIMH-ChEFS
222.677	1	4	Incongruent	pII	HAPPY	FEAR	HAPPY	0.803	1	F6HA_3882	NIMH-ChEFS
227.721	1	2	Congruent	n/a	FEAR	FEAR	FEAR	0.836	1	F19FS_6344	NIMH-ChEFS
230.767	1	2.5	Congruent	n/a	FEAR	FEAR	FEAR	0.819	1	M8FA_5885	NIMH-ChEFS
234.312	1	3	Incongruent	pCI	HAPPY	FEAR	HAPPY	0.649	1	F32HS_7996	NIMH-ChEFS
238.361	1	3.5	Incongruent	pII	HAPPY	FEAR	HAPPY	0.726	1	M19HA_9066	NIMH-ChEFS
242.904	1	3.5	Congruent	n/a	FEAR	FEAR	FEAR	0.951	1	M3FS_4775	NIMH-ChEFS
247.451	1	2.5	Congruent	n/a	HAPPY	HAPPY	HAPPY	0.727	1	F3HA_3545	NIMH-ChEFS
251.002	1	2	Incongruent	pCI	FEAR	HAPPY	FEAR	0.746	1	M9FA_6121	NIMH-ChEFS
254.049	1	4	Incongruent	pII	FEAR	HAPPY	FEAR	0.886	1	F14FA_5638	NIMH-ChEFS
259.095	1	3	Congruent	n/a	HAPPY	HAPPY	HAPPY	0.584	1	M6HS_5354	NIMH-ChEFS
263.144	1	2	Congruent	n/a	HAPPY	HAPPY	HAPPY	0.628	1	F21HS_6544	NIMH-ChEFS
266.19	1	4	Incongruent	pCI	FEAR	HAPPY	FEAR	0.725	1	M17FS_8783	NIMH-ChEFS
271.237	1	3.5	Incongruent	pII	HAPPY	FEAR	HAPPY	0.746	1	F37HA_8965	NIMH-ChEFS
275.784	1	2.5	Congruent	n/a	HAPPY	HAPPY	HAPPY	0.891	1	M12HA_7030	NIMH-ChEFS
279.329	1	3	Congruent	n/a	FEAR	FEAR	FEAR	0.818	1	F31FS_7861	NIMH-ChEFS
283.377	1	3.5	Incongruent	pCI	FEAR	HAPPY	FEAR	0.907	1	F3FA_3605	NIMH-ChEFS
287.921	1	4	Incongruent	pII	HAPPY	FEAR	HAPPY	0.702	1	M3HS_4695	NIMH-ChEFS
292.967	1	2	Congruent	n/a	FEAR	FEAR	FEAR	1.036	1	M11FA_6969	NIMH-ChEFS
296.014	1	2.5	Congruent	n/a	HAPPY	HAPPY	HAPPY	0.825	1	F14HS_5590	NIMH-ChEFS
299.561	1	3	Incongruent	pCI	FEAR	HAPPY	FEAR	0.876	1	M12FS_7070	NIMH-ChEFS
303.627	1	4	Incongruent	pII	FEAR	HAPPY	HAPPY	0.779	0	F6FS_3906	NIMH-ChEFS
308.674	1	2	Congruent	n/a	HAPPY	HAPPY	HAPPY	0.827	1	M7HA_5500	NIMH-ChEFS
311.72	1	3.5	Congruent	n/a	FEAR	FEAR	FEAR	0.88	1	F23FA_7228	NIMH-ChEFS
316.266	1	2.5	Incongruent	pCI	HAPPY	FEAR	HAPPY	1.354	1	F31HA_8583	NIMH-ChEFS
319.81	1	3	Incongruent	pII	HAPPY	FEAR	HAPPY	0.768	1	M11HS_6885	NIMH-ChEFS
323.857	1	4	Congruent	n/a	FEAR	FEAR	FEAR	0.896	1	M3FA_4789	NIMH-ChEFS
328.902	1	3	Congruent	n/a	FEAR	FEAR	FEAR	0.89	1	F34FS_8257	NIMH-ChEFS
332.945	1	2.5	Incongruent	pCI	HAPPY	FEAR	HAPPY	0.831	1	M17HS_8732	NIMH-ChEFS
336.493	1	3.5	Incongruent	pII	FEAR	HAPPY	FEAR	1.038	1	F7FA_4040	NIMH-ChEFS
341.038	1	2	Congruent	n/a	HAPPY	HAPPY	HAPPY	0.709	1	F10HS_4372	NIMH-ChEFS
344.085	1	4	Congruent	n/a	FEAR	FEAR	FEAR	0.728	1	M1FS_4325	NIMH-ChEFS
349.155	1	2.5	Incongruent	pCI	FEAR	HAPPY	FEAR	0.82	1	M6_1FA_5445	NIMH-ChEFS
352.699	1	3.5	Incongruent	pII	HAPPY	FEAR	HAPPY	0.84	1	F35HA_8422	NIMH-ChEFS
357.245	1	2	Congruent	n/a	HAPPY	HAPPY	HAPPY	1.061	1	M16HA_8638	NIMH-ChEFS
360.288	1	3	Congruent	n/a	FEAR	FEAR	FEAR	1.469	1	F12FS_5036	NIMH-ChEFS
364.333	1	2.5	Incongruent	pCI	HAPPY	FEAR	FEAR	0.713	0	F1HS_3423	NIMH-ChEFS
367.879	1	2	Incongruent	pII	FEAR	HAPPY	FEAR	1.039	1	M7FA_5539	NIMH-ChEFS
370.926	1	4	Congruent	n/a	FEAR	FEAR	FEAR	0.851	1	F34FA_8267	NIMH-ChEFS
375.972	1	3	Congruent	n/a	HAPPY	HAPPY	HAPPY	0.753	1	M8HS_5817	NIMH-ChEFS
380.018	1	3.5	Incongruent	pCI	FEAR	HAPPY	FEAR	0.695	1	F23FS_7205	NIMH-ChEFS
384.564	1	2	Incongruent	pII	HAPPY	FEAR	HAPPY	0.711	1	M1HA_4302	NIMH-ChEFS
387.61	1	3	Congruent	n/a	FEAR	FEAR	FEAR	0.929	1	M5FS_5188	NIMH-ChEFS
391.656	1	3.5	Congruent	n/a	HAPPY	HAPPY	HAPPY	0.755	1	F18HA_6193	NIMH-ChEFS
396.203	1	2.5	Incongruent	pCI	FEAR	HAPPY	FEAR	1.45	1	M20FA_9277	NIMH-ChEFS
399.749	1	4	Incongruent	pII	FEAR	HAPPY	FEAR	0.857	1	F10FA_4434	NIMH-ChEFS
404.792	1	3	Congruent	n/a	HAPPY	HAPPY	HAPPY	0.781	1	F7HS_3986	NIMH-ChEFS
408.839	1	4	Congruent	n/a	HAPPY	HAPPY	HAPPY	0.684	1	M12HS_7022	NIMH-ChEFS
413.889	1	3.5	Incongruent	pCI	FEAR	HAPPY	FEAR	0.802	1	M7FS_5530	NIMH-ChEFS
418.434	1	2.5	Incongruent	pII	HAPPY	FEAR	HAPPY	0.872	1	F21HA_6550	NIMH-ChEFS
421.98	1	2	Congruent	n/a	HAPPY	HAPPY	HAPPY	0.668	1	M17HA_8742	NIMH-ChEFS
425.025	1	2	Congruent	n/a	FEAR	FEAR	FEAR	0.691	1	F39FS_9475	NIMH-ChEFS
428.069	1	4	Incongruent	pCI	HAPPY	FEAR	HAPPY	0.792	1	M11HA_6890	NIMH-ChEFS
433.117	1	3.5	Incongruent	pII	FEAR	HAPPY	FEAR	0.802	1	F19FA_6353	NIMH-ChEFS
437.662	1	3	Congruent	n/a	FEAR	FEAR	FEAR	0.821	1	M15FA_8374	NIMH-ChEFS
441.71	1	2.5	Congruent	n/a	HAPPY	HAPPY	HAPPY	0.59	1	F13HS_5255	NIMH-ChEFS
445.254	1	4	Incongruent	pCI	HAPPY	FEAR	HAPPY	0.713	1	M20HS_9191	NIMH-ChEFS
450.302	1	3	Incongruent	pII	FEAR	HAPPY	FEAR	0.527	1	M6FS_5422	NIMH-ChEFS
454.348	1	3.5	Congruent	n/a	HAPPY	HAPPY	HAPPY	0.655	1	F16HA_5934	NIMH-ChEFS
458.892	1	2	Congruent	n/a	FEAR	FEAR	FEAR	0.717	1	M18FA_8913	NIMH-ChEFS
461.936	1	2.5	Incongruent	pCI	HAPPY	FEAR	HAPPY	0.699	1	F39HS_9426	NIMH-ChEFS
465.483	1	2.5	Incongruent	pII	FEAR	HAPPY	FEAR	1.704	1	F3FS_3596	NIMH-ChEFS
469.027	1	3.5	Congruent	n/a	FEAR	FEAR	FEAR	0.748	1	M8FS_5869	NIMH-ChEFS
473.575	1	3	Congruent	n/a	HAPPY	HAPPY	HAPPY	0.653	1	M4HS_4862	NIMH-ChEFS
477.62	1	4	Incongruent	pCI	HAPPY	FEAR	HAPPY	0.725	1	F2HA_3451	NIMH-ChEFS
482.666	1	2	Incongruent	pII	HAPPY	FEAR	HAPPY	1.475	1	M10HA_6772	NIMH-ChEFS
485.711	1	3	Congruent	n/a	FEAR	FEAR	FEAR	1.119	1	F18FS_6229	NIMH-ChEFS
489.758	1	2	Congruent	n/a	HAPPY	HAPPY	HAPPY	0.832	1	F31HS_8581	NIMH-ChEFS
492.804	1	3.5	Incongruent	pCI	FEAR	HAPPY	FEAR	1.484	1	M12FA_7082	NIMH-ChEFS
497.349	1	4	Incongruent	pII	HAPPY	FEAR	HAPPY	0.724	1	F12HA_5004	NIMH-ChEFS
502.393	1	2.5	Congruent	n/a	FEAR	FEAR	FEAR	0.755	1	F6FA_3922	NIMH-ChEFS
505.942	1	3.5	Congruent	n/a	HAPPY	HAPPY	HAPPY	0.636	1	M5HS_5134	NIMH-ChEFS
510.488	1	4	Incongruent	pCI	HAPPY	FEAR	HAPPY	0.658	1	M14HS_7912	NIMH-ChEFS
515.535	1	2.5	Incongruent	pII	FEAR	HAPPY	FEAR	0.847	1	F32FS_8041	NIMH-ChEFS
519.079	1	2	Congruent	n/a	FEAR	FEAR	FEAR	0.714	1	M19FA_9129	NIMH-ChEFS
522.126	1	3	Congruent	n/a	HAPPY	HAPPY	HAPPY	0.904	1	F34HS_8209	NIMH-ChEFS
526.173	1	2.5	Incongruent	pCI	HAPPY	FEAR	HAPPY	0.676	1	M18HA_8854	NIMH-ChEFS
529.726	1	4	Incongruent	pII	FEAR	HAPPY	FEAR	0.818	1	F16FA_5992	NIMH-ChEFS
534.774	1	3	Congruent	n/a	FEAR	FEAR	FEAR	0.795	1	F37FS_9007	NIMH-ChEFS
538.821	1	2	Congruent	n/a	HAPPY	HAPPY	HAPPY	0.831	1	M3HA_4707	NIMH-ChEFS
541.868	1	3.5	Incongruent	pCI	FEAR	HAPPY	FEAR	0.802	1	M15FS_8364	NIMH-ChEFS
546.417	1	2.5	Incongruent	pII	FEAR	HAPPY	FEAR	0.79	1	F13FA_5314	NIMH-ChEFS
549.961	1	2	Congruent	n/a	HAPPY	HAPPY	HAPPY	0.785	1	F14HA_5595	NIMH-ChEFS
553.004	1	3	Congruent	n/a	FEAR	FEAR	FEAR	0.745	1	M5FA_5198	NIMH-ChEFS
557.052	1	3.5	Incongruent	pCI	FEAR	HAPPY	FEAR	1.496	1	F2FA_3491	NIMH-ChEFS
561.598	1	4	Incongruent	pII	HAPPY	FEAR	HAPPY	1.451	1	F23HS_7148	NIMH-ChEFS
566.644	1	2	Congruent	n/a	FEAR	FEAR	FEAR	0.698	1	M18FS_8888	NIMH-ChEFS
569.689	1	4	Congruent	n/a	HAPPY	HAPPY	HAPPY	0.719	1	F30HA_8500	NIMH-ChEFS
574.735	1	3	Incongruent	pCI	HAPPY	FEAR	HAPPY	1.164	1	M7HS_5497	NIMH-ChEFS
578.782	1	3.5	Incongruent	pII	FEAR	HAPPY	FEAR	1.8	1	F14FS_5632	NIMH-ChEFS
583.326	1	2.5	Congruent	n/a	HAPPY	HAPPY	HAPPY	0.972	1	M2HA_4506	NIMH-ChEFS
586.871	1	3.5	Congruent	n/a	FEAR	FEAR	FEAR	0.921	1	F21FA_6608	NIMH-ChEFS
591.417	1	2	Incongruent	pCI	HAPPY	FEAR	HAPPY	0.721	1	F6HS_3875	NIMH-ChEFS
594.462	1	4	Incongruent	pII	HAPPY	FEAR	HAPPY	0.736	1	M19HS_9059	NIMH-ChEFS
599.508	1	3	Congruent	n/a	FEAR	FEAR	FEAR	0.745	1	F4FS_3704	NIMH-ChEFS
603.553	1	2.5	Congruent	n/a	HAPPY	HAPPY	HAPPY	0.771	1	F32HA_7998	NIMH-ChEFS
607.096	1	2.5	Incongruent	pCI	HAPPY	FEAR	HAPPY	0.853	1	M6HA_5360	NIMH-ChEFS
610.642	1	2	Incongruent	pII	FEAR	HAPPY	FEAR	0.812	1	M16FA_8681	NIMH-ChEFS
613.691	1	3	Congruent	n/a	HAPPY	HAPPY	HAPPY	0.632	1	F19HS_6297	NIMH-ChEFS
617.735	1	3.5	Congruent	n/a	FEAR	FEAR	FEAR	1.256	1	F35FA_8465	NIMH-ChEFS
622.281	1	4	Incongruent	pCI	FEAR	HAPPY	FEAR	0.769	1	M4FS_4935	NIMH-ChEFS
627.328	1	2	Incongruent	pII	HAPPY	FEAR	HAPPY	0.894	1	F37HS_8954	NIMH-ChEFS
630.391	1	3.5	Congruent	n/a	FEAR	FEAR	FEAR	0.968	1	F30FS_8546	NIMH-ChEFS
634.939	1	4	Congruent	n/a	HAPPY	HAPPY	HAPPY	0.816	1	M9HS_6054	NIMH-ChEFS
639.986	1	3	Incongruent	pCI	FEAR	HAPPY	FEAR	0.843	1	F31FA_7873	NIMH-ChEFS
644.054	1	2.5	Incongruent	pII	HAPPY	FEAR	HAPPY	0.543	1	F4HA_3668	NIMH-ChEFS
647.602	1	2	Congruent	n/a	HAPPY	HAPPY	HAPPY	0.691	1	M15HA_8321	NIMH-ChEFS
650.644	1	3.5	Incongruent	pCI	HAPPY	FEAR	HAPPY	0.718	1	F3HS_3540	NIMH-ChEFS
655.189	1	3	Incongruent	pII	FEAR	HAPPY	FEAR	0.959	1	M20FS_9236	NIMH-ChEFS
