onset	duration	interstimulus_interval	trial_type	trial_type_2	target_condition	distractor	response	response_time	correct	identifier	database
0.062	1	3.5	Congruent	n/a	FEAR	FEAR	FEAR	1.227	1	M9FS_6104	NIMH-ChEFS
4.648	1	4	Congruent	n/a	HAPPY	HAPPY	HAPPY	0.536	1	F13HA_5265	NIMH-ChEFS
9.729	1	2	Incongruent	pCI	HAPPY	FEAR	HAPPY	1.1	1	M4HA_4877	NIMH-ChEFS
12.828	1	2.5	Incongruent	pII	FEAR	HAPPY	FEAR	0.626	1	F7FS_4016	NIMH-ChEFS
16.404	1	3	Congruent	n/a	HAPPY	HAPPY	HAPPY	0.72	1	F30HS_8495	NIMH-ChEFS
20.477	1	4	Congruent	n/a	FEAR	FEAR	FEAR	0.842	1	M4FA_4941	NIMH-ChEFS
25.548	1	2	Incongruent	pCI	FEAR	HAPPY	FEAR	0.766	1	F32FA_8053	NIMH-ChEFS
28.606	1	3.5	Incongruent	pII	HAPPY	FEAR	HAPPY	1.093	1	M10HS_6767	NIMH-ChEFS
33.181	1	2.5	Congruent	n/a	HAPPY	HAPPY	HAPPY	0.998	1	F23HA_7156	NIMH-ChEFS
36.752	1	3	Congruent	n/a	FEAR	FEAR	FEAR	0.742	1	F13FS_5292	NIMH-ChEFS
40.826	1	4	Incongruent	pCI	HAPPY	FEAR	HAPPY	0.683	1	F4HS_3664	NIMH-ChEFS
45.899	1	3	Incongruent	pII	HAPPY	FEAR	HAPPY	1.035	1	M20HA_9192	NIMH-ChEFS
49.969	1	2.5	Congruent	n/a	FEAR	FEAR	FEAR	0.745	1	F18FA_6243	NIMH-ChEFS
53.541	1	3.5	Congruent	n/a	HAPPY	HAPPY	HAPPY	0.773	1	M18HS_8848	NIMH-ChEFS
58.119	1	2	Incongruent	pCI	FEAR	HAPPY	FEAR	0.865	1	M14FS_7958	NIMH-ChEFS
61.195	1	4	Incongruent	pII	HAPPY	FEAR	HAPPY	0.879	1	F39HA_9433	NIMH-ChEFS
66.268	1	2.5	Congruent	n/a	FEAR	FEAR	FEAR	0.636	1	M10_FA_6823	NIMH-ChEFS
69.842	1	3.5	Congruent	n/a	HAPPY	HAPPY	HAPPY	0.882	1	F12HS_5000	NIMH-ChEFS
74.415	1	2	Incongruent	pCI	FEAR	HAPPY	FEAR	0.784	1	M17FA_8799	NIMH-ChEFS
77.49	1	3	Incongruent	pII	FEAR	HAPPY	FEAR	0.884	1	F2FS_3470	NIMH-ChEFS
81.567	1	2.5	Congruent	n/a	HAPPY	HAPPY	HAPPY	1.037	1	M14HA_7913	NIMH-ChEFS
85.141	1	2	Congruent	n/a	HAPPY	HAPPY	HAPPY	0.768	1	F7HA_3985	NIMH-ChEFS
88.217	1	4	Incongruent	pCI	FEAR	HAPPY	FEAR	1.172	1	M2FS_4636	NIMH-ChEFS
93.286	1	3	Incongruent	pII	HAPPY	FEAR	no_resp	-0.099	0	F18HS_6186	NIMH-ChEFS
97.328	1	3.5	Congruent	n/a	FEAR	FEAR	FEAR	0.671	1	F39FA_9489	NIMH-ChEFS
101.895	1	2	Congruent	n/a	HAPPY	HAPPY	HAPPY	0.469	1	M2HS_4493	NIMH-ChEFS
104.972	1	3	Incongruent	pCI	HAPPY	FEAR	HAPPY	1.247	1	F1HA_3424	NIMH-ChEFS
109.052	1	3.5	Incongruent	pII	FEAR	HAPPY	FEAR	0.902	1	M6FA__5449	NIMH-ChEFS
113.621	1	2.5	Congruent	n/a	FEAR	FEAR	FEAR	0.783	1	M19FS_9117	NIMH-ChEFS
117.186	1	4	Congruent	n/a	HAPPY	HAPPY	HAPPY	0.563	1	F35HS_8418	NIMH-ChEFS
122.231	1	3	Incongruent	pCI	FEAR	HAPPY	FEAR	1.063	1	F16FS_5978	NIMH-ChEFS
126.306	1	4	Incongruent	pII	FEAR	HAPPY	HAPPY	0.863	0	M1FA_4336	NIMH-ChEFS
131.38	1	3.5	Congruent	n/a	HAPPY	HAPPY	HAPPY	0.999	1	M9HA_6057	NIMH-ChEFS
135.949	1	2.5	Congruent	n/a	FEAR	FEAR	FEAR	0.85	1	F4FA_3712	NIMH-ChEFS
139.522	1	2	Incongruent	pCI	HAPPY	FEAR	HAPPY	0.797	1	M15HS_8316	NIMH-ChEFS
142.591	1	2	Incongruent	pII	FEAR	HAPPY	no_resp	-0.099	0	F21FS_6587	NIMH-ChEFS
145.638	1	4	Congruent	n/a	HAPPY	HAPPY	HAPPY	1.216	1	F19HA_6311	NIMH-ChEFS
150.698	1	3.5	Congruent	n/a	FEAR	FEAR	FEAR	0.751	1	M10_4FS_6817	NIMH-ChEFS
155.274	1	3	Incongruent	pCI	HAPPY	FEAR	HAPPY	0.54	1	F2HS_3448	NIMH-ChEFS
159.345	1	2.5	Incongruent	pII	HAPPY	FEAR	HAPPY	0.704	1	F10HA_4379	NIMH-ChEFS
162.917	1	4	Congruent	n/a	FEAR	FEAR	FEAR	0.472	1	M14FA_7960	NIMH-ChEFS
167.995	1	3	Congruent	n/a	FEAR	FEAR	FEAR	0.894	1	F30FA_8552	NIMH-ChEFS
172.067	1	3.5	Incongruent	pCI	HAPPY	FEAR	HAPPY	0.902	1	M8HA_5828	NIMH-ChEFS
176.638	1	2	Incongruent	pII	FEAR	HAPPY	FEAR	0.771	1	F35FS_8451	NIMH-ChEFS
179.704	1	2.5	Congruent	n/a	HAPPY	HAPPY	HAPPY	0.7	1	M1HS_4301	NIMH-ChEFS
183.277	1	2.5	Congruent	n/a	FEAR	FEAR	FEAR	0.742	1	F37FA_9020	NIMH-ChEFS
186.849	1	3.5	Incongruent	pCI	FEAR	HAPPY	no_resp	-0.099	0	M11FS_6953	NIMH-ChEFS
191.391	1	3	Incongruent	pII	HAPPY	FEAR	HAPPY	0.713	1	F34HA_8219	NIMH-ChEFS
195.462	1	4	Congruent	n/a	FEAR	FEAR	FEAR	0.677	1	F10FS_4426	NIMH-ChEFS
200.533	1	2	Congruent	n/a	HAPPY	HAPPY	HAPPY	0.656	1	M16HS_8633	NIMH-ChEFS
203.608	1	3	Incongruent	pCI	HAPPY	FEAR	HAPPY	0.691	1	M5HA_5140	NIMH-ChEFS
207.682	1	2	Incongruent	pII	FEAR	HAPPY	HAPPY	0.797	0	F12FA_5062	NIMH-ChEFS
210.756	1	3.5	Congruent	n/a	HAPPY	HAPPY	HAPPY	0.718	1	F16HS_5924	NIMH-ChEFS
215.325	1	4	Congruent	n/a	FEAR	FEAR	FEAR	0.569	1	M2FA_4644	NIMH-ChEFS
220.397	1	2.5	Incongruent	pCI	FEAR	HAPPY	FEAR	0.672	1	M16FS_8676	NIMH-ChEFS
223.967	1	3.5	Incongruent	pII	HAPPY	FEAR	HAPPY	0.722	1	F6HA_3882	NIMH-ChEFS
228.52	1	4	Congruent	n/a	FEAR	FEAR	FEAR	0.674	1	F19FS_6344	NIMH-ChEFS
233.591	1	2.5	Congruent	n/a	FEAR	FEAR	FEAR	0.662	1	M8FA_5885	NIMH-ChEFS
237.163	1	2	Incongruent	pCI	HAPPY	FEAR	HAPPY	1.215	1	F32HS_7996	NIMH-ChEFS
240.239	1	3	Incongruent	pII	HAPPY	FEAR	HAPPY	1.075	1	M19HA_9066	NIMH-ChEFS
244.31	1	2.5	Congruent	n/a	FEAR	FEAR	FEAR	0.83	1	M3FS_4775	NIMH-ChEFS
247.882	1	4	Congruent	n/a	HAPPY	HAPPY	HAPPY	0.833	1	F3HA_3545	NIMH-ChEFS
252.956	1	3	Incongruent	pCI	FEAR	HAPPY	FEAR	1.044	1	M9FA_6121	NIMH-ChEFS
257.024	1	2	Incongruent	pII	FEAR	HAPPY	FEAR	1.011	1	F14FA_5638	NIMH-ChEFS
260.101	1	3.5	Congruent	n/a	HAPPY	HAPPY	HAPPY	0.629	1	M6HS_5354	NIMH-ChEFS
264.674	1	2.5	Congruent	n/a	HAPPY	HAPPY	HAPPY	0.716	1	F21HS_6544	NIMH-ChEFS
268.247	1	2	Incongruent	pCI	FEAR	HAPPY	FEAR	0.723	1	M17FS_8783	NIMH-ChEFS
271.322	1	3	Incongruent	pII	HAPPY	FEAR	HAPPY	1.043	1	F37HA_8965	NIMH-ChEFS
275.4	1	3.5	Congruent	n/a	HAPPY	HAPPY	HAPPY	0.995	1	M12HA_7030	NIMH-ChEFS
279.975	1	4	Congruent	n/a	FEAR	FEAR	FEAR	0.7	1	F31FS_7861	NIMH-ChEFS
285.052	1	2	Incongruent	pCI	FEAR	HAPPY	HAPPY	0.933	0	F3FA_3605	NIMH-ChEFS
288.128	1	4	Incongruent	pII	HAPPY	FEAR	HAPPY	0.932	1	M3HS_4695	NIMH-ChEFS
293.2	1	3	Congruent	n/a	FEAR	FEAR	FEAR	1.015	1	M11FA_6969	NIMH-ChEFS
297.276	1	3.5	Congruent	n/a	HAPPY	HAPPY	HAPPY	0.749	1	F14HS_5590	NIMH-ChEFS
301.847	1	2.5	Incongruent	pCI	FEAR	HAPPY	FEAR	0.873	1	M12FS_7070	NIMH-ChEFS
305.423	1	3.5	Incongruent	pII	FEAR	HAPPY	HAPPY	0.622	0	F6FS_3906	NIMH-ChEFS
310.004	1	2	Congruent	n/a	HAPPY	HAPPY	HAPPY	0.791	1	M7HA_5500	NIMH-ChEFS
313.083	1	4	Congruent	n/a	FEAR	FEAR	FEAR	0.562	1	F23FA_7228	NIMH-ChEFS
318.158	1	3	Incongruent	pCI	HAPPY	FEAR	HAPPY	0.697	1	F31HA_8583	NIMH-ChEFS
322.236	1	2.5	Incongruent	pII	HAPPY	FEAR	HAPPY	0.854	1	M11HS_6885	NIMH-ChEFS
325.81	1	2.5	Congruent	n/a	FEAR	FEAR	FEAR	1.29	1	M3FA_4789	NIMH-ChEFS
329.383	1	2	Congruent	n/a	FEAR	FEAR	no_resp	-0.099	0	F34FS_8257	NIMH-ChEFS
332.427	1	3	Incongruent	pCI	HAPPY	FEAR	FEAR	1.068	0	M17HS_8732	NIMH-ChEFS
336.503	1	3.5	Incongruent	pII	FEAR	HAPPY	FEAR	0.727	1	F7FA_4040	NIMH-ChEFS
341.081	1	4	Congruent	n/a	HAPPY	HAPPY	HAPPY	0.579	1	F10HS_4372	NIMH-ChEFS
346.149	1	2	Congruent	n/a	FEAR	FEAR	FEAR	0.736	1	M1FS_4325	NIMH-ChEFS
349.227	1	3.5	Incongruent	pCI	FEAR	HAPPY	HAPPY	0.923	0	M6_1FA_5445	NIMH-ChEFS
353.803	1	4	Incongruent	pII	HAPPY	FEAR	HAPPY	0.727	1	F35HA_8422	NIMH-ChEFS
358.882	1	3	Congruent	n/a	HAPPY	HAPPY	HAPPY	0.918	1	M16HA_8638	NIMH-ChEFS
362.96	1	2.5	Congruent	n/a	FEAR	FEAR	FEAR	0.935	1	F12FS_5036	NIMH-ChEFS
366.542	1	2	Incongruent	pCI	HAPPY	FEAR	HAPPY	1.013	1	F1HS_3423	NIMH-ChEFS
369.619	1	3.5	Incongruent	pII	FEAR	HAPPY	FEAR	0.791	1	M7FA_5539	NIMH-ChEFS
374.185	1	3	Congruent	n/a	FEAR	FEAR	FEAR	0.69	1	F34FA_8267	NIMH-ChEFS
378.263	1	2.5	Congruent	n/a	HAPPY	HAPPY	HAPPY	0.977	1	M8HS_5817	NIMH-ChEFS
381.845	1	4	Incongruent	pCI	FEAR	HAPPY	HAPPY	0.64	0	F23FS_7205	NIMH-ChEFS
386.923	1	2.5	Incongruent	pII	HAPPY	FEAR	HAPPY	0.857	1	M1HA_4302	NIMH-ChEFS
390.497	1	3	Congruent	n/a	FEAR	FEAR	FEAR	0.733	1	M5FS_5188	NIMH-ChEFS
394.574	1	2	Congruent	n/a	HAPPY	HAPPY	HAPPY	0.941	1	F18HA_6193	NIMH-ChEFS
397.656	1	4	Incongruent	pCI	FEAR	HAPPY	HAPPY	0.854	0	M20FA_9277	NIMH-ChEFS
402.732	1	3.5	Incongruent	pII	FEAR	HAPPY	FEAR	0.828	1	F10FA_4434	NIMH-ChEFS
407.313	1	3.5	Congruent	n/a	HAPPY	HAPPY	HAPPY	0.787	1	F7HS_3986	NIMH-ChEFS
411.884	1	2.5	Congruent	n/a	HAPPY	HAPPY	HAPPY	0.996	1	M12HS_7022	NIMH-ChEFS
415.455	1	3	Incongruent	pCI	FEAR	HAPPY	FEAR	0.875	1	M7FS_5530	NIMH-ChEFS
419.527	1	2	Incongruent	pII	HAPPY	FEAR	HAPPY	0.843	1	F21HA_6550	NIMH-ChEFS
422.601	1	4	Congruent	n/a	HAPPY	HAPPY	no_resp	-0.099	0	M17HA_8742	NIMH-ChEFS
427.644	1	3	Congruent	n/a	FEAR	FEAR	FEAR	0.951	1	F39FS_9475	NIMH-ChEFS
431.716	1	3.5	Incongruent	pCI	HAPPY	FEAR	FEAR	0.744	0	M11HA_6890	NIMH-ChEFS
436.294	1	4	Incongruent	pII	FEAR	HAPPY	FEAR	0.996	1	F19FA_6353	NIMH-ChEFS
441.369	1	2.5	Congruent	n/a	FEAR	FEAR	HAPPY	1.256	0	M15FA_8374	NIMH-ChEFS
444.943	1	2	Congruent	n/a	HAPPY	HAPPY	HAPPY	0.957	1	F13HS_5255	NIMH-ChEFS
448.021	1	2.5	Incongruent	pCI	HAPPY	FEAR	HAPPY	0.984	1	M20HS_9191	NIMH-ChEFS
451.595	1	3	Incongruent	pII	FEAR	HAPPY	FEAR	0.72	1	M6FS_5422	NIMH-ChEFS
455.672	1	3.5	Congruent	n/a	HAPPY	HAPPY	HAPPY	0.818	1	F16HA_5934	NIMH-ChEFS
460.246	1	2	Congruent	n/a	FEAR	FEAR	FEAR	0.914	1	M18FA_8913	NIMH-ChEFS
463.322	1	4	Incongruent	pCI	HAPPY	FEAR	HAPPY	0.768	1	F39HS_9426	NIMH-ChEFS
468.389	1	4	Incongruent	pII	FEAR	HAPPY	FEAR	0.866	1	F3FS_3596	NIMH-ChEFS
473.468	1	3	Congruent	n/a	FEAR	FEAR	FEAR	0.937	1	M8FS_5869	NIMH-ChEFS
477.547	1	2	Congruent	n/a	HAPPY	HAPPY	HAPPY	0.943	1	M4HS_4862	NIMH-ChEFS
480.623	1	3.5	Incongruent	pCI	HAPPY	FEAR	HAPPY	1.052	1	F2HA_3451	NIMH-ChEFS
485.201	1	2.5	Incongruent	pII	HAPPY	FEAR	FEAR	0.999	0	M10HA_6772	NIMH-ChEFS
488.775	1	4	Congruent	n/a	FEAR	FEAR	FEAR	0.98	1	F18FS_6229	NIMH-ChEFS
493.848	1	3.5	Congruent	n/a	HAPPY	HAPPY	HAPPY	0.997	1	F31HS_8581	NIMH-ChEFS
498.424	1	2	Incongruent	pCI	FEAR	HAPPY	FEAR	0.921	1	M12FA_7082	NIMH-ChEFS
501.467	1	3	Incongruent	pII	HAPPY	FEAR	no_resp	-0.099	0	F12HA_5004	NIMH-ChEFS
505.512	1	2.5	Congruent	n/a	FEAR	FEAR	FEAR	0.748	1	F6FA_3922	NIMH-ChEFS
509.087	1	2.5	Congruent	n/a	HAPPY	HAPPY	HAPPY	0.688	1	M5HS_5134	NIMH-ChEFS
512.658	1	2	Incongruent	pCI	HAPPY	FEAR	HAPPY	1.242	1	M14HS_7912	NIMH-ChEFS
515.732	1	3	Incongruent	pII	FEAR	HAPPY	FEAR	1.093	1	F32FS_8041	NIMH-ChEFS
519.808	1	3.5	Congruent	n/a	FEAR	FEAR	FEAR	0.657	1	M19FA_9129	NIMH-ChEFS
524.379	1	4	Congruent	n/a	HAPPY	HAPPY	HAPPY	0.626	1	F34HS_8209	NIMH-ChEFS
529.451	1	4	Incongruent	pCI	HAPPY	FEAR	HAPPY	0.634	1	M18HA_8854	NIMH-ChEFS
534.523	1	2.5	Incongruent	pII	FEAR	HAPPY	FEAR	0.752	1	F16FA_5992	NIMH-ChEFS
538.094	1	2	Congruent	n/a	FEAR	FEAR	no_resp	-0.099	0	F37FS_9007	NIMH-ChEFS
541.137	1	3	Congruent	n/a	HAPPY	HAPPY	HAPPY	0.733	1	M3HA_4707	NIMH-ChEFS
545.207	1	3.5	Incongruent	pCI	FEAR	HAPPY	FEAR	0.588	1	M15FS_8364	NIMH-ChEFS
549.782	1	4	Incongruent	pII	FEAR	HAPPY	FEAR	0.888	1	F13FA_5314	NIMH-ChEFS
554.854	1	3	Congruent	n/a	HAPPY	HAPPY	HAPPY	0.646	1	F14HA_5595	NIMH-ChEFS
558.928	1	2.5	Congruent	n/a	FEAR	FEAR	FEAR	0.792	1	M5FA_5198	NIMH-ChEFS
562.501	1	2	Incongruent	pCI	FEAR	HAPPY	FEAR	0.744	1	F2FA_3491	NIMH-ChEFS
565.572	1	3.5	Incongruent	pII	HAPPY	FEAR	no_resp	-0.099	0	F23HS_7148	NIMH-ChEFS
570.113	1	2.5	Congruent	n/a	FEAR	FEAR	FEAR	1.292	1	M18FS_8888	NIMH-ChEFS
573.696	1	3.5	Congruent	n/a	HAPPY	HAPPY	HAPPY	0.839	1	F30HA_8500	NIMH-ChEFS
578.267	1	4	Incongruent	pCI	HAPPY	FEAR	HAPPY	1.078	1	M7HS_5497	NIMH-ChEFS
583.338	1	3	Incongruent	pII	FEAR	HAPPY	HAPPY	0.662	0	F14FS_5632	NIMH-ChEFS
587.422	1	2	Congruent	n/a	HAPPY	HAPPY	HAPPY	0.783	1	M2HA_4506	NIMH-ChEFS
590.488	1	4	Congruent	n/a	FEAR	FEAR	FEAR	0.542	1	F21FA_6608	NIMH-ChEFS
595.561	1	3	Incongruent	pCI	HAPPY	FEAR	no_resp	-0.099	0	F6HS_3875	NIMH-ChEFS
599.602	1	3.5	Incongruent	pII	HAPPY	FEAR	FEAR	0.878	0	M19HS_9059	NIMH-ChEFS
604.175	1	2.5	Congruent	n/a	FEAR	FEAR	FEAR	0.78	1	F4FS_3704	NIMH-ChEFS
607.755	1	2	Congruent	n/a	HAPPY	HAPPY	HAPPY	0.725	1	F32HA_7998	NIMH-ChEFS
610.831	1	2.5	Incongruent	pCI	HAPPY	FEAR	HAPPY	0.889	1	M6HA_5360	NIMH-ChEFS
614.404	1	2	Incongruent	pII	FEAR	HAPPY	FEAR	0.771	1	M16FA_8681	NIMH-ChEFS
617.475	1	4	Congruent	n/a	HAPPY	HAPPY	HAPPY	0.695	1	F19HS_6297	NIMH-ChEFS
622.542	1	3	Congruent	n/a	FEAR	FEAR	FEAR	0.853	1	F35FA_8465	NIMH-ChEFS
626.615	1	3.5	Incongruent	pCI	FEAR	HAPPY	FEAR	0.67	1	M4FS_4935	NIMH-ChEFS
631.186	1	2	Incongruent	pII	HAPPY	FEAR	HAPPY	0.669	1	F37HS_8954	NIMH-ChEFS
634.259	1	2.5	Congruent	n/a	FEAR	FEAR	FEAR	0.896	1	F30FS_8546	NIMH-ChEFS
637.833	1	3.5	Congruent	n/a	HAPPY	HAPPY	HAPPY	0.607	1	M9HS_6054	NIMH-ChEFS
642.405	1	3	Incongruent	pCI	FEAR	HAPPY	FEAR	0.775	1	F31FA_7873	NIMH-ChEFS
646.477	1	4	Incongruent	pII	HAPPY	FEAR	HAPPY	0.858	1	F4HA_3668	NIMH-ChEFS
651.549	1	2	Congruent	n/a	HAPPY	HAPPY	FEAR	0.876	0	M15HA_8321	NIMH-ChEFS
654.617	1	3.5	Incongruent	pCI	HAPPY	FEAR	HAPPY	0.758	1	F3HS_3540	NIMH-ChEFS
659.19	1	4	Incongruent	pII	FEAR	HAPPY	FEAR	1.245	1	M20FS_9236	NIMH-ChEFS
