onset	duration	interstimulus_interval	trial_type	trial_type_2	target_condition	distractor	response	response_time	correct	identifier	database
0.067	1	4	Congruent	n/a	FEAR	FEAR	FEAR	1.085	1	M9FS_6104	NIMH-ChEFS
5.121	1	2.5	Congruent	n/a	HAPPY	HAPPY	HAPPY	1.034	1	F13HA_5265	NIMH-ChEFS
8.699	1	3.5	Incongruent	pCI	HAPPY	FEAR	HAPPY	1.27	1	M4HA_4877	NIMH-ChEFS
13.262	1	2	Incongruent	pII	FEAR	HAPPY	FEAR	0.835	1	F7FS_4016	NIMH-ChEFS
16.311	1	3	Congruent	n/a	HAPPY	HAPPY	HAPPY	0.82	1	F30HS_8495	NIMH-ChEFS
20.358	1	2.5	Congruent	n/a	FEAR	FEAR	FEAR	0.784	1	M4FA_4941	NIMH-ChEFS
23.906	1	2	Incongruent	pCI	FEAR	HAPPY	FEAR	1.092	1	F32FA_8053	NIMH-ChEFS
26.952	1	4	Incongruent	pII	HAPPY	FEAR	HAPPY	1.082	1	M10HS_6767	NIMH-ChEFS
32.021	1	3	Congruent	n/a	HAPPY	HAPPY	HAPPY	1.009	1	F23HA_7156	NIMH-ChEFS
36.068	1	3.5	Congruent	n/a	FEAR	FEAR	FEAR	0.782	1	F13FS_5292	NIMH-ChEFS
40.636	1	2.5	Incongruent	pCI	HAPPY	FEAR	HAPPY	1.289	1	F4HS_3664	NIMH-ChEFS
44.182	1	3	Incongruent	pII	HAPPY	FEAR	HAPPY	0.995	1	M20HA_9192	NIMH-ChEFS
48.227	1	3.5	Congruent	n/a	FEAR	FEAR	FEAR	0.843	1	F18FA_6243	NIMH-ChEFS
52.798	1	2	Congruent	n/a	HAPPY	HAPPY	HAPPY	0.634	1	M18HS_8848	NIMH-ChEFS
55.867	1	4	Incongruent	pCI	FEAR	HAPPY	FEAR	1.208	1	M14FS_7958	NIMH-ChEFS
60.914	1	4	Incongruent	pII	HAPPY	FEAR	HAPPY	1.31	1	F39HA_9433	NIMH-ChEFS
65.986	1	3.5	Congruent	n/a	FEAR	FEAR	FEAR	0.74	1	M10_FA_6823	NIMH-ChEFS
70.533	1	2	Congruent	n/a	HAPPY	HAPPY	HAPPY	0.675	1	F12HS_5000	NIMH-ChEFS
73.581	1	2.5	Incongruent	pCI	FEAR	HAPPY	FEAR	0.965	1	M17FA_8799	NIMH-ChEFS
77.153	1	3	Incongruent	pII	FEAR	HAPPY	FEAR	0.842	1	F2FS_3470	NIMH-ChEFS
81.213	1	3	Congruent	n/a	HAPPY	HAPPY	HAPPY	0.755	1	M14HA_7913	NIMH-ChEFS
85.263	1	2	Congruent	n/a	HAPPY	HAPPY	HAPPY	1.063	1	F7HA_3985	NIMH-ChEFS
88.308	1	2.5	Incongruent	pCI	FEAR	HAPPY	FEAR	1.259	1	M2FS_4636	NIMH-ChEFS
91.852	1	4	Incongruent	pII	HAPPY	FEAR	FEAR	1.18	0	F18HS_6186	NIMH-ChEFS
96.922	1	3.5	Congruent	n/a	FEAR	FEAR	HAPPY	1.211	0	F39FA_9489	NIMH-ChEFS
101.469	1	4	Congruent	n/a	HAPPY	HAPPY	HAPPY	0.917	1	M2HS_4493	NIMH-ChEFS
106.515	1	3	Incongruent	pCI	HAPPY	FEAR	HAPPY	1.445	1	F1HA_3424	NIMH-ChEFS
110.563	1	3.5	Incongruent	pII	FEAR	HAPPY	FEAR	0.923	1	M6FA__5449	NIMH-ChEFS
115.131	1	2.5	Congruent	n/a	FEAR	FEAR	FEAR	1.064	1	M19FS_9117	NIMH-ChEFS
118.678	1	2	Congruent	n/a	HAPPY	HAPPY	HAPPY	0.772	1	F35HS_8418	NIMH-ChEFS
121.746	1	4	Incongruent	pCI	FEAR	HAPPY	FEAR	0.738	1	F16FS_5978	NIMH-ChEFS
126.818	1	3	Incongruent	pII	FEAR	HAPPY	FEAR	0.985	1	M1FA_4336	NIMH-ChEFS
130.865	1	2	Congruent	n/a	HAPPY	HAPPY	HAPPY	0.963	1	M9HA_6057	NIMH-ChEFS
133.934	1	2.5	Congruent	n/a	FEAR	FEAR	FEAR	0.753	1	F4FA_3712	NIMH-ChEFS
137.479	1	3.5	Incongruent	pCI	HAPPY	FEAR	HAPPY	0.963	1	M15HS_8316	NIMH-ChEFS
142.026	1	2	Incongruent	pII	FEAR	HAPPY	FEAR	0.946	1	F21FS_6587	NIMH-ChEFS
145.075	1	3.5	Congruent	n/a	HAPPY	HAPPY	HAPPY	1.039	1	F19HA_6311	NIMH-ChEFS
149.641	1	4	Congruent	n/a	FEAR	FEAR	FEAR	0.663	1	M10_4FS_6817	NIMH-ChEFS
154.688	1	3	Incongruent	pCI	HAPPY	FEAR	HAPPY	1.376	1	F2HS_3448	NIMH-ChEFS
158.756	1	2.5	Incongruent	pII	HAPPY	FEAR	HAPPY	1.297	1	F10HA_4379	NIMH-ChEFS
162.3	1	3.5	Congruent	n/a	FEAR	FEAR	FEAR	0.949	1	M14FA_7960	NIMH-ChEFS
166.871	1	4	Congruent	n/a	FEAR	FEAR	FEAR	0.877	1	F30FA_8552	NIMH-ChEFS
171.94	1	2.5	Incongruent	pCI	HAPPY	FEAR	FEAR	1.079	0	M8HA_5828	NIMH-ChEFS
175.488	1	2	Incongruent	pII	FEAR	HAPPY	FEAR	0.884	1	F35FS_8451	NIMH-ChEFS
178.536	1	3	Congruent	n/a	HAPPY	HAPPY	HAPPY	0.944	1	M1HS_4301	NIMH-ChEFS
182.581	1	3.5	Congruent	n/a	FEAR	FEAR	FEAR	1.402	1	F37FA_9020	NIMH-ChEFS
187.127	1	2	Incongruent	pCI	FEAR	HAPPY	HAPPY	0.779	0	M11FS_6953	NIMH-ChEFS
190.174	1	4	Incongruent	pII	HAPPY	FEAR	HAPPY	0.873	1	F34HA_8219	NIMH-ChEFS
195.24	1	3	Congruent	n/a	FEAR	FEAR	FEAR	1.172	1	F10FS_4426	NIMH-ChEFS
199.3	1	2.5	Congruent	n/a	HAPPY	HAPPY	HAPPY	0.794	1	M16HS_8633	NIMH-ChEFS
202.843	1	3.5	Incongruent	pCI	HAPPY	FEAR	HAPPY	1.386	1	M5HA_5140	NIMH-ChEFS
207.391	1	2	Incongruent	pII	FEAR	HAPPY	FEAR	0.999	1	F12FA_5062	NIMH-ChEFS
210.438	1	2.5	Congruent	n/a	HAPPY	HAPPY	HAPPY	1.509	1	F16HS_5924	NIMH-ChEFS
213.98	1	4	Congruent	n/a	FEAR	FEAR	FEAR	0.826	1	M2FA_4644	NIMH-ChEFS
219.022	1	3	Incongruent	pCI	FEAR	HAPPY	FEAR	1.223	1	M16FS_8676	NIMH-ChEFS
223.064	1	3	Incongruent	pII	HAPPY	FEAR	HAPPY	1.083	1	F6HA_3882	NIMH-ChEFS
227.129	1	2.5	Congruent	n/a	FEAR	FEAR	FEAR	1.565	1	F19FS_6344	NIMH-ChEFS
230.674	1	4	Congruent	n/a	FEAR	FEAR	FEAR	0.921	1	M8FA_5885	NIMH-ChEFS
235.741	1	3.5	Incongruent	pCI	HAPPY	FEAR	HAPPY	0.953	1	F32HS_7996	NIMH-ChEFS
240.311	1	2	Incongruent	pII	HAPPY	FEAR	HAPPY	1.013	1	M19HA_9066	NIMH-ChEFS
243.365	1	4	Congruent	n/a	FEAR	FEAR	FEAR	0.984	1	M3FS_4775	NIMH-ChEFS
248.411	1	3	Congruent	n/a	HAPPY	HAPPY	HAPPY	1.067	1	F3HA_3545	NIMH-ChEFS
252.474	1	2	Incongruent	pCI	FEAR	HAPPY	HAPPY	0.757	0	M9FA_6121	NIMH-ChEFS
255.522	1	2.5	Incongruent	pII	FEAR	HAPPY	HAPPY	1.631	0	F14FA_5638	NIMH-ChEFS
259.067	1	3.5	Congruent	n/a	HAPPY	HAPPY	HAPPY	1.492	1	M6HS_5354	NIMH-ChEFS
263.638	1	3.5	Congruent	n/a	HAPPY	HAPPY	HAPPY	0.781	1	F21HS_6544	NIMH-ChEFS
268.186	1	3	Incongruent	pCI	FEAR	HAPPY	FEAR	0.99	1	M17FS_8783	NIMH-ChEFS
272.232	1	2	Incongruent	pII	HAPPY	FEAR	HAPPY	1.506	1	F37HA_8965	NIMH-ChEFS
275.301	1	4	Congruent	n/a	HAPPY	HAPPY	HAPPY	1.552	1	M12HA_7030	NIMH-ChEFS
280.347	1	2.5	Congruent	n/a	FEAR	FEAR	FEAR	0.718	1	F31FS_7861	NIMH-ChEFS
283.892	1	4	Incongruent	pCI	FEAR	HAPPY	FEAR	1.764	1	F3FA_3605	NIMH-ChEFS
288.937	1	3	Incongruent	pII	HAPPY	FEAR	HAPPY	0.881	1	M3HS_4695	NIMH-ChEFS
293.004	1	2	Congruent	n/a	FEAR	FEAR	FEAR	1.222	1	M11FA_6969	NIMH-ChEFS
296.073	1	3.5	Congruent	n/a	HAPPY	HAPPY	HAPPY	0.766	1	F14HS_5590	NIMH-ChEFS
300.622	1	2.5	Incongruent	pCI	FEAR	HAPPY	FEAR	0.74	1	M12FS_7070	NIMH-ChEFS
304.189	1	2.5	Incongruent	pII	FEAR	HAPPY	FEAR	0.914	1	F6FS_3906	NIMH-ChEFS
307.736	1	3.5	Congruent	n/a	HAPPY	HAPPY	HAPPY	1.078	1	M7HA_5500	NIMH-ChEFS
312.28	1	2	Congruent	n/a	FEAR	FEAR	FEAR	0.791	1	F23FA_7228	NIMH-ChEFS
315.348	1	3	Incongruent	pCI	HAPPY	FEAR	HAPPY	1.251	1	F31HA_8583	NIMH-ChEFS
319.393	1	4	Incongruent	pII	HAPPY	FEAR	HAPPY	1.116	1	M11HS_6885	NIMH-ChEFS
324.435	1	3.5	Congruent	n/a	FEAR	FEAR	FEAR	0.853	1	M3FA_4789	NIMH-ChEFS
328.979	1	2	Congruent	n/a	FEAR	FEAR	FEAR	1.297	1	F34FS_8257	NIMH-ChEFS
332.025	1	4	Incongruent	pCI	HAPPY	FEAR	HAPPY	1.028	1	M17HS_8732	NIMH-ChEFS
337.072	1	3	Incongruent	pII	FEAR	HAPPY	FEAR	0.794	1	F7FA_4040	NIMH-ChEFS
341.119	1	2.5	Congruent	n/a	HAPPY	HAPPY	HAPPY	0.805	1	F10HS_4372	NIMH-ChEFS
344.664	1	4	Congruent	n/a	FEAR	FEAR	FEAR	1.276	1	M1FS_4325	NIMH-ChEFS
349.712	1	2.5	Incongruent	pCI	FEAR	HAPPY	FEAR	1.107	1	M6_1FA_5445	NIMH-ChEFS
353.282	1	3.5	Incongruent	pII	HAPPY	FEAR	HAPPY	1.402	1	F35HA_8422	NIMH-ChEFS
357.828	1	2	Congruent	n/a	HAPPY	HAPPY	HAPPY	0.937	1	M16HA_8638	NIMH-ChEFS
360.897	1	3	Congruent	n/a	FEAR	FEAR	FEAR	0.972	1	F12FS_5036	NIMH-ChEFS
364.941	1	2.5	Incongruent	pCI	HAPPY	FEAR	FEAR	1.179	0	F1HS_3423	NIMH-ChEFS
368.487	1	3.5	Incongruent	pII	FEAR	HAPPY	FEAR	1.02	1	M7FA_5539	NIMH-ChEFS
373.032	1	4	Congruent	n/a	FEAR	FEAR	FEAR	1.114	1	F34FA_8267	NIMH-ChEFS
378.079	1	3	Congruent	n/a	HAPPY	HAPPY	HAPPY	0.984	1	M8HS_5817	NIMH-ChEFS
382.13	1	2	Incongruent	pCI	FEAR	HAPPY	FEAR	0.76	1	F23FS_7205	NIMH-ChEFS
385.175	1	3	Incongruent	pII	HAPPY	FEAR	FEAR	0.901	0	M1HA_4302	NIMH-ChEFS
389.222	1	4	Congruent	n/a	FEAR	FEAR	FEAR	0.781	1	M5FS_5188	NIMH-ChEFS
394.293	1	3.5	Congruent	n/a	HAPPY	HAPPY	HAPPY	1.083	1	F18HA_6193	NIMH-ChEFS
398.84	1	2.5	Incongruent	pCI	FEAR	HAPPY	HAPPY	0.869	0	M20FA_9277	NIMH-ChEFS
402.409	1	2	Incongruent	pII	FEAR	HAPPY	FEAR	0.98	1	F10FA_4434	NIMH-ChEFS
405.456	1	2.5	Congruent	n/a	HAPPY	HAPPY	FEAR	1.267	0	F7HS_3986	NIMH-ChEFS
409.026	1	2	Congruent	n/a	HAPPY	HAPPY	HAPPY	0.633	1	M12HS_7022	NIMH-ChEFS
412.073	1	4	Incongruent	pCI	FEAR	HAPPY	FEAR	0.863	1	M7FS_5530	NIMH-ChEFS
417.141	1	3	Incongruent	pII	HAPPY	FEAR	FEAR	1.802	0	F21HA_6550	NIMH-ChEFS
421.213	1	3.5	Congruent	n/a	HAPPY	HAPPY	HAPPY	1.423	1	M17HA_8742	NIMH-ChEFS
425.758	1	4	Congruent	n/a	FEAR	FEAR	FEAR	0.785	1	F39FS_9475	NIMH-ChEFS
430.806	1	2.5	Incongruent	pCI	HAPPY	FEAR	HAPPY	1.127	1	M11HA_6890	NIMH-ChEFS
434.377	1	3	Incongruent	pII	FEAR	HAPPY	FEAR	1.158	1	F19FA_6353	NIMH-ChEFS
438.447	1	2	Congruent	n/a	FEAR	FEAR	FEAR	0.895	1	M15FA_8374	NIMH-ChEFS
441.516	1	3.5	Congruent	n/a	HAPPY	HAPPY	HAPPY	0.868	1	F13HS_5255	NIMH-ChEFS
446.08	1	4	Incongruent	pCI	HAPPY	FEAR	FEAR	0.759	0	M20HS_9191	NIMH-ChEFS
451.151	1	2	Incongruent	pII	FEAR	HAPPY	FEAR	1.067	1	M6FS_5422	NIMH-ChEFS
454.199	1	3	Congruent	n/a	HAPPY	HAPPY	HAPPY	0.905	1	F16HA_5934	NIMH-ChEFS
458.245	1	2.5	Congruent	n/a	FEAR	FEAR	FEAR	1.008	1	M18FA_8913	NIMH-ChEFS
461.791	1	3.5	Incongruent	pCI	HAPPY	FEAR	FEAR	0.772	0	F39HS_9426	NIMH-ChEFS
466.338	1	2	Incongruent	pII	FEAR	HAPPY	HAPPY	1.965	0	F3FS_3596	NIMH-ChEFS
469.409	1	2.5	Congruent	n/a	FEAR	FEAR	FEAR	1.298	1	M8FS_5869	NIMH-ChEFS
472.98	1	3.5	Congruent	n/a	HAPPY	HAPPY	HAPPY	0.851	1	M4HS_4862	NIMH-ChEFS
477.537	1	3	Incongruent	pCI	HAPPY	FEAR	HAPPY	1.416	1	F2HA_3451	NIMH-ChEFS
481.579	1	4	Incongruent	pII	HAPPY	FEAR	FEAR	1.214	0	M10HA_6772	NIMH-ChEFS
486.647	1	3	Congruent	n/a	FEAR	FEAR	FEAR	1.202	1	F18FS_6229	NIMH-ChEFS
490.695	1	4	Congruent	n/a	HAPPY	HAPPY	HAPPY	1.135	1	F31HS_8581	NIMH-ChEFS
495.766	1	3.5	Incongruent	pCI	FEAR	HAPPY	FEAR	1.349	1	M12FA_7082	NIMH-ChEFS
500.312	1	2.5	Incongruent	pII	HAPPY	FEAR	HAPPY	1.14	1	F12HA_5004	NIMH-ChEFS
503.884	1	2	Congruent	n/a	FEAR	FEAR	FEAR	1.235	1	F6FA_3922	NIMH-ChEFS
506.932	1	3.5	Congruent	n/a	HAPPY	HAPPY	HAPPY	0.856	1	M5HS_5134	NIMH-ChEFS
511.502	1	3	Incongruent	pCI	HAPPY	FEAR	FEAR	0.739	0	M14HS_7912	NIMH-ChEFS
515.545	1	2.5	Incongruent	pII	FEAR	HAPPY	FEAR	0.757	1	F32FS_8041	NIMH-ChEFS
519.09	1	4	Congruent	n/a	FEAR	FEAR	FEAR	0.733	1	M19FA_9129	NIMH-ChEFS
524.138	1	2	Congruent	n/a	HAPPY	HAPPY	HAPPY	0.619	1	F34HS_8209	NIMH-ChEFS
527.185	1	3	Incongruent	pCI	HAPPY	FEAR	FEAR	0.831	0	M18HA_8854	NIMH-ChEFS
531.253	1	2	Incongruent	pII	FEAR	HAPPY	FEAR	0.976	1	F16FA_5992	NIMH-ChEFS
534.323	1	2.5	Congruent	n/a	FEAR	FEAR	FEAR	2.401	1	F37FS_9007	NIMH-ChEFS
537.894	1	4	Congruent	n/a	HAPPY	HAPPY	HAPPY	0.947	1	M3HA_4707	NIMH-ChEFS
542.963	1	3.5	Incongruent	pCI	FEAR	HAPPY	FEAR	1.149	1	M15FS_8364	NIMH-ChEFS
547.533	1	3	Incongruent	pII	FEAR	HAPPY	FEAR	0.911	1	F13FA_5314	NIMH-ChEFS
551.578	1	3.5	Congruent	n/a	HAPPY	HAPPY	HAPPY	1.063	1	F14HA_5595	NIMH-ChEFS
556.123	1	4	Congruent	n/a	FEAR	FEAR	FEAR	0.873	1	M5FA_5198	NIMH-ChEFS
561.193	1	2.5	Incongruent	pCI	FEAR	HAPPY	FEAR	1.338	1	F2FA_3491	NIMH-ChEFS
564.739	1	2	Incongruent	pII	HAPPY	FEAR	HAPPY	1.188	1	F23HS_7148	NIMH-ChEFS
567.809	1	2.5	Congruent	n/a	FEAR	FEAR	FEAR	1.003	1	M18FS_8888	NIMH-ChEFS
571.382	1	2	Congruent	n/a	HAPPY	HAPPY	HAPPY	0.844	1	F30HA_8500	NIMH-ChEFS
574.427	1	3.5	Incongruent	pCI	HAPPY	FEAR	HAPPY	0.916	1	M7HS_5497	NIMH-ChEFS
578.975	1	3	Incongruent	pII	FEAR	HAPPY	FEAR	0.939	1	F14FS_5632	NIMH-ChEFS
583.023	1	4	Congruent	n/a	HAPPY	HAPPY	HAPPY	0.808	1	M2HA_4506	NIMH-ChEFS
588.07	1	2	Congruent	n/a	FEAR	FEAR	FEAR	0.832	1	F21FA_6608	NIMH-ChEFS
591.116	1	3.5	Incongruent	pCI	HAPPY	FEAR	HAPPY	0.844	1	F6HS_3875	NIMH-ChEFS
595.661	1	4	Incongruent	pII	HAPPY	FEAR	HAPPY	1.074	1	M19HS_9059	NIMH-ChEFS
600.707	1	3	Congruent	n/a	FEAR	FEAR	FEAR	0.968	1	F4FS_3704	NIMH-ChEFS
604.755	1	2.5	Congruent	n/a	HAPPY	HAPPY	HAPPY	0.784	1	F32HA_7998	NIMH-ChEFS
608.321	1	3.5	Incongruent	pCI	HAPPY	FEAR	HAPPY	0.98	1	M6HA_5360	NIMH-ChEFS
612.868	1	4	Incongruent	pII	FEAR	HAPPY	FEAR	1.085	1	M16FA_8681	NIMH-ChEFS
617.938	1	3	Congruent	n/a	HAPPY	HAPPY	HAPPY	0.75	1	F19HS_6297	NIMH-ChEFS
621.983	1	2.5	Congruent	n/a	FEAR	FEAR	FEAR	0.927	1	F35FA_8465	NIMH-ChEFS
625.529	1	2	Incongruent	pCI	FEAR	HAPPY	FEAR	2.325	1	M4FS_4935	NIMH-ChEFS
628.581	1	4	Incongruent	pII	HAPPY	FEAR	HAPPY	0.832	1	F37HS_8954	NIMH-ChEFS
633.627	1	3	Congruent	n/a	FEAR	FEAR	FEAR	0.812	1	F30FS_8546	NIMH-ChEFS
637.695	1	3.5	Congruent	n/a	HAPPY	HAPPY	HAPPY	0.61	1	M9HS_6054	NIMH-ChEFS
642.262	1	2.5	Incongruent	pCI	FEAR	HAPPY	FEAR	0.925	1	F31FA_7873	NIMH-ChEFS
645.807	1	2	Incongruent	pII	HAPPY	FEAR	HAPPY	1.56	1	F4HA_3668	NIMH-ChEFS
648.876	1	2	Congruent	n/a	HAPPY	HAPPY	HAPPY	0.733	1	M15HA_8321	NIMH-ChEFS
651.947	1	3.5	Incongruent	pCI	HAPPY	FEAR	HAPPY	0.718	1	F3HS_3540	NIMH-ChEFS
656.515	1	2.5	Incongruent	pII	FEAR	HAPPY	FEAR	0.818	1	M20FS_9236	NIMH-ChEFS
