onset	duration	interstimulus_interval	trial_type	trial_type_2	target_condition	distractor	response	response_time	correct	identifier	database
0.053	1	2.5	Congruent	n/a	FEAR	FEAR	FEAR	0.882	1	M9FS_6104	NIMH-ChEFS
3.631	1	3	Congruent	n/a	HAPPY	HAPPY	HAPPY	0.778	1	F13HA_5265	NIMH-ChEFS
7.684	1	3.5	Incongruent	pCI	HAPPY	FEAR	HAPPY	1.012	1	M4HA_4877	NIMH-ChEFS
12.267	1	2	Incongruent	pII	FEAR	HAPPY	HAPPY	0.962	0	F7FS_4016	NIMH-ChEFS
15.314	1	4	Congruent	n/a	HAPPY	HAPPY	HAPPY	1.112	1	F30HS_8495	NIMH-ChEFS
20.382	1	4	Congruent	n/a	FEAR	FEAR	FEAR	0.791	1	M4FA_4941	NIMH-ChEFS
25.427	1	3.5	Incongruent	pCI	FEAR	HAPPY	FEAR	0.797	1	F32FA_8053	NIMH-ChEFS
29.972	1	2	Incongruent	pII	HAPPY	FEAR	HAPPY	0.684	1	M10HS_6767	NIMH-ChEFS
33.017	1	2.5	Congruent	n/a	HAPPY	HAPPY	HAPPY	0.958	1	F23HA_7156	NIMH-ChEFS
36.562	1	3	Congruent	n/a	FEAR	FEAR	FEAR	0.761	1	F13FS_5292	NIMH-ChEFS
40.606	1	3	Incongruent	pCI	HAPPY	FEAR	HAPPY	1.318	1	F4HS_3664	NIMH-ChEFS
44.672	1	2	Incongruent	pII	HAPPY	FEAR	HAPPY	0.954	1	M20HA_9192	NIMH-ChEFS
47.717	1	2.5	Congruent	n/a	FEAR	FEAR	FEAR	0.808	1	F18FA_6243	NIMH-ChEFS
51.284	1	4	Congruent	n/a	HAPPY	HAPPY	HAPPY	0.555	1	M18HS_8848	NIMH-ChEFS
56.352	1	3.5	Incongruent	pCI	FEAR	HAPPY	FEAR	0.685	1	M14FS_7958	NIMH-ChEFS
60.897	1	4	Incongruent	pII	HAPPY	FEAR	HAPPY	0.767	1	F39HA_9433	NIMH-ChEFS
65.941	1	3	Congruent	n/a	FEAR	FEAR	HAPPY	1.056	0	M10_FA_6823	NIMH-ChEFS
69.987	1	3.5	Congruent	n/a	HAPPY	HAPPY	HAPPY	0.851	1	F12HS_5000	NIMH-ChEFS
74.557	1	2.5	Incongruent	pCI	FEAR	HAPPY	FEAR	0.535	1	M17FA_8799	NIMH-ChEFS
78.102	1	2	Incongruent	pII	FEAR	HAPPY	FEAR	0.778	1	F2FS_3470	NIMH-ChEFS
81.148	1	4	Congruent	n/a	HAPPY	HAPPY	HAPPY	0.593	1	M14HA_7913	NIMH-ChEFS
86.216	1	3	Congruent	n/a	HAPPY	HAPPY	HAPPY	0.524	1	F7HA_3985	NIMH-ChEFS
90.286	1	2	Incongruent	pCI	FEAR	HAPPY	FEAR	1.146	1	M2FS_4636	NIMH-ChEFS
93.346	1	2.5	Incongruent	pII	HAPPY	FEAR	FEAR	1.11	0	F18HS_6186	NIMH-ChEFS
96.916	1	3.5	Congruent	n/a	FEAR	FEAR	FEAR	1.222	1	F39FA_9489	NIMH-ChEFS
101.482	1	2	Congruent	n/a	HAPPY	HAPPY	HAPPY	0.581	1	M2HS_4493	NIMH-ChEFS
104.547	1	3.5	Incongruent	pCI	HAPPY	FEAR	no_resp	-0.099	0	F1HA_3424	NIMH-ChEFS
109.089	1	4	Incongruent	pII	FEAR	HAPPY	FEAR	1.202	1	M6FA__5449	NIMH-ChEFS
114.134	1	3	Congruent	n/a	FEAR	FEAR	FEAR	0.916	1	M19FS_9117	NIMH-ChEFS
118.181	1	2.5	Congruent	n/a	HAPPY	HAPPY	HAPPY	0.867	1	F35HS_8418	NIMH-ChEFS
121.747	1	3.5	Incongruent	pCI	FEAR	HAPPY	FEAR	0.773	1	F16FS_5978	NIMH-ChEFS
126.314	1	4	Incongruent	pII	FEAR	HAPPY	FEAR	0.8	1	M1FA_4336	NIMH-ChEFS
131.382	1	2.5	Congruent	n/a	HAPPY	HAPPY	HAPPY	0.524	1	M9HA_6057	NIMH-ChEFS
134.927	1	2	Congruent	n/a	FEAR	FEAR	FEAR	0.776	1	F4FA_3712	NIMH-ChEFS
137.967	1	3	Incongruent	pCI	HAPPY	FEAR	HAPPY	1.126	1	M15HS_8316	NIMH-ChEFS
142.013	1	3.5	Incongruent	pII	FEAR	HAPPY	FEAR	0.739	1	F21FS_6587	NIMH-ChEFS
146.559	1	2	Congruent	n/a	HAPPY	HAPPY	FEAR	0.732	0	F19HA_6311	NIMH-ChEFS
149.604	1	4	Congruent	n/a	FEAR	FEAR	FEAR	0.684	1	M10_4FS_6817	NIMH-ChEFS
154.67	1	3	Incongruent	pCI	HAPPY	FEAR	HAPPY	0.953	1	F2HS_3448	NIMH-ChEFS
158.715	1	2.5	Incongruent	pII	HAPPY	FEAR	HAPPY	0.61	1	F10HA_4379	NIMH-ChEFS
162.26	1	3.5	Congruent	n/a	FEAR	FEAR	FEAR	0.71	1	M14FA_7960	NIMH-ChEFS
166.828	1	2	Congruent	n/a	FEAR	FEAR	FEAR	1.092	1	F30FA_8552	NIMH-ChEFS
169.894	1	2.5	Incongruent	pCI	HAPPY	FEAR	HAPPY	0.818	1	M8HA_5828	NIMH-ChEFS
173.463	1	4	Incongruent	pII	FEAR	HAPPY	FEAR	0.705	1	F35FS_8451	NIMH-ChEFS
178.509	1	3	Congruent	n/a	HAPPY	HAPPY	HAPPY	0.83	1	M1HS_4301	NIMH-ChEFS
182.553	1	3	Congruent	n/a	FEAR	FEAR	FEAR	0.932	1	F37FA_9020	NIMH-ChEFS
186.599	1	2.5	Incongruent	pCI	FEAR	HAPPY	HAPPY	0.631	0	M11FS_6953	NIMH-ChEFS
190.145	1	4	Incongruent	pII	HAPPY	FEAR	HAPPY	0.858	1	F34HA_8219	NIMH-ChEFS
195.192	1	3.5	Congruent	n/a	FEAR	FEAR	FEAR	1.099	1	F10FS_4426	NIMH-ChEFS
199.76	1	2	Congruent	n/a	HAPPY	HAPPY	HAPPY	0.744	1	M16HS_8633	NIMH-ChEFS
202.828	1	4	Incongruent	pCI	HAPPY	FEAR	HAPPY	1.103	1	M5HA_5140	NIMH-ChEFS
207.896	1	3	Incongruent	pII	FEAR	HAPPY	FEAR	0.747	1	F12FA_5062	NIMH-ChEFS
211.965	1	2	Congruent	n/a	HAPPY	HAPPY	HAPPY	0.823	1	F16HS_5924	NIMH-ChEFS
215.007	1	2.5	Congruent	n/a	FEAR	FEAR	FEAR	0.65	1	M2FA_4644	NIMH-ChEFS
218.553	1	3.5	Incongruent	pCI	FEAR	HAPPY	FEAR	1.157	1	M16FS_8676	NIMH-ChEFS
223.098	1	3.5	Incongruent	pII	HAPPY	FEAR	HAPPY	0.791	1	F6HA_3882	NIMH-ChEFS
227.642	1	3	Congruent	n/a	FEAR	FEAR	FEAR	0.748	1	F19FS_6344	NIMH-ChEFS
231.687	1	2	Congruent	n/a	FEAR	FEAR	FEAR	0.914	1	M8FA_5885	NIMH-ChEFS
234.756	1	4	Incongruent	pCI	HAPPY	FEAR	HAPPY	0.532	1	F32HS_7996	NIMH-ChEFS
239.815	1	2.5	Incongruent	pII	HAPPY	FEAR	HAPPY	0.868	1	M19HA_9066	NIMH-ChEFS
243.386	1	4	Congruent	n/a	FEAR	FEAR	FEAR	0.73	1	M3FS_4775	NIMH-ChEFS
248.46	1	3	Congruent	n/a	HAPPY	HAPPY	HAPPY	1.072	1	F3HA_3545	NIMH-ChEFS
252.528	1	2	Incongruent	pCI	FEAR	HAPPY	FEAR	0.49	1	M9FA_6121	NIMH-ChEFS
255.576	1	3.5	Incongruent	pII	FEAR	HAPPY	FEAR	1.235	1	F14FA_5638	NIMH-ChEFS
260.117	1	2.5	Congruent	n/a	HAPPY	HAPPY	HAPPY	0.574	1	M6HS_5354	NIMH-ChEFS
263.685	1	2.5	Congruent	n/a	HAPPY	HAPPY	HAPPY	0.936	1	F21HS_6544	NIMH-ChEFS
267.23	1	3.5	Incongruent	pCI	FEAR	HAPPY	FEAR	0.679	1	M17FS_8783	NIMH-ChEFS
271.798	1	2	Incongruent	pII	HAPPY	FEAR	HAPPY	0.836	1	F37HA_8965	NIMH-ChEFS
274.867	1	3	Congruent	n/a	HAPPY	HAPPY	HAPPY	0.936	1	M12HA_7030	NIMH-ChEFS
278.906	1	4	Congruent	n/a	FEAR	FEAR	FEAR	1.149	1	F31FS_7861	NIMH-ChEFS
283.947	1	3.5	Incongruent	pCI	FEAR	HAPPY	FEAR	0.529	1	F3FA_3605	NIMH-ChEFS
288.517	1	2	Incongruent	pII	HAPPY	FEAR	HAPPY	0.92	1	M3HS_4695	NIMH-ChEFS
291.584	1	4	Congruent	n/a	FEAR	FEAR	FEAR	0.612	1	M11FA_6969	NIMH-ChEFS
296.652	1	3	Congruent	n/a	HAPPY	HAPPY	HAPPY	0.708	1	F14HS_5590	NIMH-ChEFS
300.721	1	2.5	Incongruent	pCI	FEAR	HAPPY	no_resp	-0.099	0	M12FS_7070	NIMH-ChEFS
304.265	1	4	Incongruent	pII	FEAR	HAPPY	FEAR	1.175	1	F6FS_3906	NIMH-ChEFS
309.311	1	2.5	Congruent	n/a	HAPPY	HAPPY	HAPPY	0.591	1	M7HA_5500	NIMH-ChEFS
312.877	1	3.5	Congruent	n/a	FEAR	FEAR	FEAR	0.845	1	F23FA_7228	NIMH-ChEFS
317.441	1	2	Incongruent	pCI	HAPPY	FEAR	HAPPY	0.778	1	F31HA_8583	NIMH-ChEFS
320.484	1	3	Incongruent	pII	HAPPY	FEAR	HAPPY	1.309	1	M11HS_6885	NIMH-ChEFS
324.528	1	2.5	Congruent	n/a	FEAR	FEAR	FEAR	0.687	1	M3FA_4789	NIMH-ChEFS
328.097	1	3.5	Congruent	n/a	FEAR	FEAR	FEAR	0.62	1	F34FS_8257	NIMH-ChEFS
332.667	1	4	Incongruent	pCI	HAPPY	FEAR	HAPPY	0.604	1	M17HS_8732	NIMH-ChEFS
337.713	1	3	Incongruent	pII	FEAR	HAPPY	FEAR	1.207	1	F7FA_4040	NIMH-ChEFS
341.758	1	2	Congruent	n/a	HAPPY	HAPPY	HAPPY	0.665	1	F10HS_4372	NIMH-ChEFS
344.825	1	3	Congruent	n/a	FEAR	FEAR	FEAR	0.656	1	M1FS_4325	NIMH-ChEFS
348.872	1	4	Incongruent	pCI	FEAR	HAPPY	FEAR	0.939	1	M6_1FA_5445	NIMH-ChEFS
353.941	1	3.5	Incongruent	pII	HAPPY	FEAR	HAPPY	0.474	1	F35HA_8422	NIMH-ChEFS
358.512	1	2.5	Congruent	n/a	HAPPY	HAPPY	FEAR	1.335	0	M16HA_8638	NIMH-ChEFS
362.055	1	2	Congruent	n/a	FEAR	FEAR	FEAR	1.175	1	F12FS_5036	NIMH-ChEFS
365.12	1	2.5	Incongruent	pCI	HAPPY	FEAR	HAPPY	1.079	1	F1HS_3423	NIMH-ChEFS
368.689	1	2	Incongruent	pII	FEAR	HAPPY	FEAR	0.821	1	M7FA_5539	NIMH-ChEFS
371.732	1	4	Congruent	n/a	FEAR	FEAR	FEAR	0.869	1	F34FA_8267	NIMH-ChEFS
376.777	1	3	Congruent	n/a	HAPPY	HAPPY	HAPPY	0.562	1	M8HS_5817	NIMH-ChEFS
380.846	1	3.5	Incongruent	pCI	FEAR	HAPPY	FEAR	0.902	1	F23FS_7205	NIMH-ChEFS
385.39	1	4	Incongruent	pII	HAPPY	FEAR	HAPPY	0.767	1	M1HA_4302	NIMH-ChEFS
390.437	1	2.5	Congruent	n/a	FEAR	FEAR	FEAR	0.84	1	M5FS_5188	NIMH-ChEFS
394.01	1	3	Congruent	n/a	HAPPY	HAPPY	HAPPY	0.659	1	F18HA_6193	NIMH-ChEFS
398.081	1	2	Incongruent	pCI	FEAR	HAPPY	FEAR	1.084	1	M20FA_9277	NIMH-ChEFS
401.149	1	3.5	Incongruent	pII	FEAR	HAPPY	FEAR	1.17	1	F10FA_4434	NIMH-ChEFS
405.697	1	4	Congruent	n/a	HAPPY	HAPPY	HAPPY	0.913	1	F7HS_3986	NIMH-ChEFS
410.744	1	2	Congruent	n/a	HAPPY	HAPPY	FEAR	1.072	0	M12HS_7022	NIMH-ChEFS
413.798	1	3	Incongruent	pCI	FEAR	HAPPY	HAPPY	1.012	0	M7FS_5530	NIMH-ChEFS
417.863	1	2.5	Incongruent	pII	HAPPY	FEAR	HAPPY	1.02	1	F21HA_6550	NIMH-ChEFS
421.406	1	3.5	Congruent	n/a	HAPPY	HAPPY	HAPPY	0.94	1	M17HA_8742	NIMH-ChEFS
425.971	1	2	Congruent	n/a	FEAR	FEAR	FEAR	0.367	1	F39FS_9475	NIMH-ChEFS
429.018	1	2.5	Incongruent	pCI	HAPPY	FEAR	HAPPY	0.515	1	M11HA_6890	NIMH-ChEFS
432.564	1	3.5	Incongruent	pII	FEAR	HAPPY	FEAR	0.62	1	F19FA_6353	NIMH-ChEFS
437.109	1	3	Congruent	n/a	FEAR	FEAR	FEAR	0.587	1	M15FA_8374	NIMH-ChEFS
441.181	1	4	Congruent	n/a	HAPPY	HAPPY	HAPPY	1.099	1	F13HS_5255	NIMH-ChEFS
446.248	1	3	Incongruent	pCI	HAPPY	FEAR	HAPPY	0.738	1	M20HS_9191	NIMH-ChEFS
450.318	1	4	Incongruent	pII	FEAR	HAPPY	FEAR	1.16	1	M6FS_5422	NIMH-ChEFS
455.388	1	3.5	Congruent	n/a	HAPPY	HAPPY	HAPPY	1.34	1	F16HA_5934	NIMH-ChEFS
459.956	1	2.5	Congruent	n/a	FEAR	FEAR	FEAR	0.705	1	M18FA_8913	NIMH-ChEFS
463.498	1	2	Incongruent	pCI	HAPPY	FEAR	HAPPY	0.688	1	F39HS_9426	NIMH-ChEFS
466.543	1	3.5	Incongruent	pII	FEAR	HAPPY	FEAR	1.039	1	F3FS_3596	NIMH-ChEFS
471.087	1	3	Congruent	n/a	FEAR	FEAR	HAPPY	0.928	0	M8FS_5869	NIMH-ChEFS
475.156	1	2.5	Congruent	n/a	HAPPY	HAPPY	HAPPY	0.967	1	M4HS_4862	NIMH-ChEFS
478.699	1	4	Incongruent	pCI	HAPPY	FEAR	HAPPY	0.886	1	F2HA_3451	NIMH-ChEFS
483.767	1	2	Incongruent	pII	HAPPY	FEAR	HAPPY	0.859	1	M10HA_6772	NIMH-ChEFS
486.81	1	3	Congruent	n/a	FEAR	FEAR	FEAR	0.77	1	F18FS_6229	NIMH-ChEFS
490.878	1	2	Congruent	n/a	HAPPY	HAPPY	HAPPY	0.928	1	F31HS_8581	NIMH-ChEFS
493.923	1	2.5	Incongruent	pCI	FEAR	HAPPY	FEAR	1.197	1	M12FA_7082	NIMH-ChEFS
497.466	1	4	Incongruent	pII	HAPPY	FEAR	HAPPY	0.778	1	F12HA_5004	NIMH-ChEFS
502.511	1	3.5	Congruent	n/a	FEAR	FEAR	FEAR	0.867	1	F6FA_3922	NIMH-ChEFS
507.079	1	3	Congruent	n/a	HAPPY	HAPPY	HAPPY	1.255	1	M5HS_5134	NIMH-ChEFS
511.124	1	3.5	Incongruent	pCI	HAPPY	FEAR	HAPPY	0.748	1	M14HS_7912	NIMH-ChEFS
515.67	1	4	Incongruent	pII	FEAR	HAPPY	FEAR	1.094	1	F32FS_8041	NIMH-ChEFS
520.713	1	2.5	Congruent	n/a	FEAR	FEAR	FEAR	0.828	1	M19FA_9129	NIMH-ChEFS
524.261	1	2	Congruent	n/a	HAPPY	HAPPY	HAPPY	1.037	1	F34HS_8209	NIMH-ChEFS
527.33	1	2.5	Incongruent	pCI	HAPPY	FEAR	FEAR	0.854	0	M18HA_8854	NIMH-ChEFS
530.899	1	2	Incongruent	pII	FEAR	HAPPY	FEAR	1.334	1	F16FA_5992	NIMH-ChEFS
533.964	1	3.5	Congruent	n/a	FEAR	FEAR	FEAR	0.871	1	F37FS_9007	NIMH-ChEFS
538.511	1	3	Congruent	n/a	HAPPY	HAPPY	HAPPY	0.544	1	M3HA_4707	NIMH-ChEFS
542.556	1	4	Incongruent	pCI	FEAR	HAPPY	FEAR	1.016	1	M15FS_8364	NIMH-ChEFS
547.602	1	2	Incongruent	pII	FEAR	HAPPY	FEAR	0.959	1	F13FA_5314	NIMH-ChEFS
550.65	1	3.5	Congruent	n/a	HAPPY	HAPPY	HAPPY	0.825	1	F14HA_5595	NIMH-ChEFS
555.22	1	4	Congruent	n/a	FEAR	FEAR	FEAR	0.756	1	M5FA_5198	NIMH-ChEFS
560.287	1	3	Incongruent	pCI	FEAR	HAPPY	FEAR	0.683	1	F2FA_3491	NIMH-ChEFS
564.332	1	2.5	Incongruent	pII	HAPPY	FEAR	HAPPY	0.695	1	F23HS_7148	NIMH-ChEFS
567.876	1	3.5	Congruent	n/a	FEAR	FEAR	FEAR	0.783	1	M18FS_8888	NIMH-ChEFS
572.446	1	4	Congruent	n/a	HAPPY	HAPPY	HAPPY	0.758	1	F30HA_8500	NIMH-ChEFS
577.496	1	3	Incongruent	pCI	HAPPY	FEAR	HAPPY	1.067	1	M7HS_5497	NIMH-ChEFS
581.539	1	2.5	Incongruent	pII	FEAR	HAPPY	FEAR	1.121	1	F14FS_5632	NIMH-ChEFS
585.087	1	2	Congruent	n/a	HAPPY	HAPPY	HAPPY	0.892	1	M2HA_4506	NIMH-ChEFS
588.133	1	4	Congruent	n/a	FEAR	FEAR	FEAR	0.83	1	F21FA_6608	NIMH-ChEFS
593.2	1	3	Incongruent	pCI	HAPPY	FEAR	HAPPY	0.727	1	F6HS_3875	NIMH-ChEFS
597.269	1	3.5	Incongruent	pII	HAPPY	FEAR	FEAR	0.861	0	M19HS_9059	NIMH-ChEFS
601.811	1	2.5	Congruent	n/a	FEAR	FEAR	FEAR	0.765	1	F4FS_3704	NIMH-ChEFS
605.358	1	2	Congruent	n/a	HAPPY	HAPPY	HAPPY	0.563	1	F32HA_7998	NIMH-ChEFS
608.424	1	2	Incongruent	pCI	HAPPY	FEAR	HAPPY	1.407	1	M6HA_5360	NIMH-ChEFS
611.49	1	3.5	Incongruent	pII	FEAR	HAPPY	FEAR	0.774	1	M16FA_8681	NIMH-ChEFS
616.06	1	2.5	Congruent	n/a	HAPPY	HAPPY	HAPPY	0.827	1	F19HS_6297	NIMH-ChEFS
619.606	1	3	Congruent	n/a	FEAR	FEAR	FEAR	0.758	1	F35FA_8465	NIMH-ChEFS
623.651	1	4	Incongruent	pCI	FEAR	HAPPY	FEAR	1.138	1	M4FS_4935	NIMH-ChEFS
628.695	1	2	Incongruent	pII	HAPPY	FEAR	HAPPY	0.95	1	F37HS_8954	NIMH-ChEFS
631.739	1	3	Congruent	n/a	FEAR	FEAR	FEAR	0.717	1	F30FS_8546	NIMH-ChEFS
635.787	1	3.5	Congruent	n/a	HAPPY	HAPPY	HAPPY	0.63	1	M9HS_6054	NIMH-ChEFS
640.356	1	4	Incongruent	pCI	FEAR	HAPPY	FEAR	0.858	1	F31FA_7873	NIMH-ChEFS
645.424	1	2.5	Incongruent	pII	HAPPY	FEAR	HAPPY	1.473	1	F4HA_3668	NIMH-ChEFS
648.995	1	3	Congruent	n/a	HAPPY	HAPPY	FEAR	0.864	0	M15HA_8321	NIMH-ChEFS
653.062	1	2.5	Incongruent	pCI	HAPPY	FEAR	HAPPY	1.022	1	F3HS_3540	NIMH-ChEFS
656.629	1	3.5	Incongruent	pII	FEAR	HAPPY	FEAR	0.551	1	M20FS_9236	NIMH-ChEFS
