onset	duration	interstimulus_interval	trial_type	trial_type_2	target_condition	distractor	response	response_time	correct	identifier	database
0.059	1	2.5	Congruent	n/a	FEAR	FEAR	FEAR	0.885	1	M9FS_6104	NIMH-ChEFS
3.617	1	4	Congruent	n/a	HAPPY	HAPPY	HAPPY	0.521	1	F13HA_5265	NIMH-ChEFS
8.672	1	2	Incongruent	pCI	HAPPY	FEAR	HAPPY	0.918	1	M4HA_4877	NIMH-ChEFS
11.734	1	3	Incongruent	pII	FEAR	HAPPY	FEAR	0.765	1	F7FS_4016	NIMH-ChEFS
15.782	1	3.5	Congruent	n/a	HAPPY	HAPPY	HAPPY	0.706	1	F30HS_8495	NIMH-ChEFS
20.33	1	3.5	Congruent	n/a	FEAR	FEAR	FEAR	0.692	1	M4FA_4941	NIMH-ChEFS
24.901	1	2.5	Incongruent	pCI	FEAR	HAPPY	FEAR	0.672	1	F32FA_8053	NIMH-ChEFS
28.471	1	4	Incongruent	pII	HAPPY	FEAR	HAPPY	0.813	1	M10HS_6767	NIMH-ChEFS
33.517	1	3	Congruent	n/a	HAPPY	HAPPY	HAPPY	0.613	1	F23HA_7156	NIMH-ChEFS
37.559	1	2	Congruent	n/a	FEAR	FEAR	FEAR	0.786	1	F13FS_5292	NIMH-ChEFS
40.603	1	2.5	Incongruent	pCI	HAPPY	FEAR	HAPPY	0.75	1	F4HS_3664	NIMH-ChEFS
44.172	1	3.5	Incongruent	pII	HAPPY	FEAR	HAPPY	0.949	1	M20HA_9192	NIMH-ChEFS
48.718	1	3	Congruent	n/a	FEAR	FEAR	FEAR	0.617	1	F18FA_6243	NIMH-ChEFS
52.762	1	4	Congruent	n/a	HAPPY	HAPPY	HAPPY	0.646	1	M18HS_8848	NIMH-ChEFS
57.808	1	2	Incongruent	pCI	FEAR	HAPPY	FEAR	0.656	1	M14FS_7958	NIMH-ChEFS
60.854	1	3.5	Incongruent	pII	HAPPY	FEAR	HAPPY	0.592	1	F39HA_9433	NIMH-ChEFS
65.397	1	2.5	Congruent	n/a	FEAR	FEAR	FEAR	0.712	1	M10_FA_6823	NIMH-ChEFS
68.967	1	2	Congruent	n/a	HAPPY	HAPPY	HAPPY	0.65	1	F12HS_5000	NIMH-ChEFS
72.036	1	3	Incongruent	pCI	FEAR	HAPPY	FEAR	0.839	1	M17FA_8799	NIMH-ChEFS
76.107	1	4	Incongruent	pII	FEAR	HAPPY	FEAR	0.669	1	F2FS_3470	NIMH-ChEFS
81.178	1	2.5	Congruent	n/a	HAPPY	HAPPY	HAPPY	0.55	1	M14HA_7913	NIMH-ChEFS
84.724	1	4	Congruent	n/a	HAPPY	HAPPY	HAPPY	0.555	1	F7HA_3985	NIMH-ChEFS
89.771	1	3.5	Incongruent	pCI	FEAR	HAPPY	FEAR	0.702	1	M2FS_4636	NIMH-ChEFS
94.338	1	3	Incongruent	pII	HAPPY	FEAR	HAPPY	0.571	1	F18HS_6186	NIMH-ChEFS
98.406	1	2	Congruent	n/a	FEAR	FEAR	FEAR	0.664	1	F39FA_9489	NIMH-ChEFS
101.476	1	2.5	Congruent	n/a	HAPPY	HAPPY	HAPPY	0.649	1	M2HS_4493	NIMH-ChEFS
105.023	1	2	Incongruent	pCI	HAPPY	FEAR	HAPPY	0.502	1	F1HA_3424	NIMH-ChEFS
108.095	1	4	Incongruent	pII	FEAR	HAPPY	FEAR	0.66	1	M6FA__5449	NIMH-ChEFS
113.164	1	3.5	Congruent	n/a	FEAR	FEAR	FEAR	0.538	1	M19FS_9117	NIMH-ChEFS
117.712	1	3	Congruent	n/a	HAPPY	HAPPY	HAPPY	0.506	1	F35HS_8418	NIMH-ChEFS
121.758	1	2	Incongruent	pCI	FEAR	HAPPY	FEAR	0.685	1	F16FS_5978	NIMH-ChEFS
124.807	1	3	Incongruent	pII	FEAR	HAPPY	FEAR	0.698	1	M1FA_4336	NIMH-ChEFS
128.854	1	4	Congruent	n/a	HAPPY	HAPPY	HAPPY	0.443	1	M9HA_6057	NIMH-ChEFS
133.902	1	3.5	Congruent	n/a	FEAR	FEAR	FEAR	0.467	1	F4FA_3712	NIMH-ChEFS
138.471	1	2.5	Incongruent	pCI	HAPPY	FEAR	HAPPY	0.578	1	M15HS_8316	NIMH-ChEFS
142.019	1	3	Incongruent	pII	FEAR	HAPPY	HAPPY	0.796	0	F21FS_6587	NIMH-ChEFS
146.064	1	4	Congruent	n/a	HAPPY	HAPPY	FEAR	1.245	0	F19HA_6311	NIMH-ChEFS
151.135	1	2	Congruent	n/a	FEAR	FEAR	FEAR	0.79	1	M10_4FS_6817	NIMH-ChEFS
154.205	1	2.5	Incongruent	pCI	HAPPY	FEAR	HAPPY	0.627	1	F2HS_3448	NIMH-ChEFS
157.749	1	3.5	Incongruent	pII	HAPPY	FEAR	HAPPY	0.61	1	F10HA_4379	NIMH-ChEFS
162.315	1	2.5	Congruent	n/a	FEAR	FEAR	FEAR	0.464	1	M14FA_7960	NIMH-ChEFS
165.859	1	3.5	Congruent	n/a	FEAR	FEAR	FEAR	0.695	1	F30FA_8552	NIMH-ChEFS
170.428	1	2	Incongruent	pCI	HAPPY	FEAR	HAPPY	0.785	1	M8HA_5828	NIMH-ChEFS
173.477	1	4	Incongruent	pII	FEAR	HAPPY	FEAR	0.865	1	F35FS_8451	NIMH-ChEFS
178.547	1	3	Congruent	n/a	HAPPY	HAPPY	HAPPY	0.651	1	M1HS_4301	NIMH-ChEFS
182.615	1	2	Congruent	n/a	FEAR	FEAR	FEAR	0.594	1	F37FA_9020	NIMH-ChEFS
185.687	1	3	Incongruent	pCI	FEAR	HAPPY	HAPPY	0.892	0	M11FS_6953	NIMH-ChEFS
189.733	1	2.5	Incongruent	pII	HAPPY	FEAR	HAPPY	0.687	1	F34HA_8219	NIMH-ChEFS
193.3	1	4	Congruent	n/a	FEAR	FEAR	FEAR	0.496	1	F10FS_4426	NIMH-ChEFS
198.369	1	3.5	Congruent	n/a	HAPPY	HAPPY	HAPPY	1.059	1	M16HS_8633	NIMH-ChEFS
202.915	1	3.5	Incongruent	pCI	HAPPY	FEAR	HAPPY	0.962	1	M5HA_5140	NIMH-ChEFS
207.489	1	3	Incongruent	pII	FEAR	HAPPY	FEAR	0.986	1	F12FA_5062	NIMH-ChEFS
211.561	1	2.5	Congruent	n/a	HAPPY	HAPPY	HAPPY	0.642	1	F16HS_5924	NIMH-ChEFS
215.131	1	4	Congruent	n/a	FEAR	FEAR	FEAR	0.597	1	M2FA_4644	NIMH-ChEFS
220.202	1	2	Incongruent	pCI	FEAR	HAPPY	FEAR	0.71	1	M16FS_8676	NIMH-ChEFS
223.272	1	3.5	Incongruent	pII	HAPPY	FEAR	HAPPY	1.125	1	F6HA_3882	NIMH-ChEFS
227.82	1	2.5	Congruent	n/a	FEAR	FEAR	FEAR	0.609	1	F19FS_6344	NIMH-ChEFS
231.387	1	2	Congruent	n/a	FEAR	FEAR	FEAR	0.611	1	M8FA_5885	NIMH-ChEFS
234.454	1	4	Incongruent	pCI	HAPPY	FEAR	HAPPY	0.971	1	F32HS_7996	NIMH-ChEFS
239.523	1	3	Incongruent	pII	HAPPY	FEAR	HAPPY	0.424	1	M19HA_9066	NIMH-ChEFS
243.594	1	3.5	Congruent	n/a	FEAR	FEAR	FEAR	0.568	1	M3FS_4775	NIMH-ChEFS
248.167	1	3	Congruent	n/a	HAPPY	HAPPY	HAPPY	0.845	1	F3HA_3545	NIMH-ChEFS
252.24	1	2	Incongruent	pCI	FEAR	HAPPY	FEAR	0.73	1	M9FA_6121	NIMH-ChEFS
255.308	1	4	Incongruent	pII	FEAR	HAPPY	FEAR	0.69	1	F14FA_5638	NIMH-ChEFS
260.379	1	2.5	Congruent	n/a	HAPPY	HAPPY	HAPPY	0.458	1	M6HS_5354	NIMH-ChEFS
263.948	1	2	Congruent	n/a	HAPPY	HAPPY	HAPPY	0.608	1	F21HS_6544	NIMH-ChEFS
267.02	1	4	Incongruent	pCI	FEAR	HAPPY	FEAR	0.719	1	M17FS_8783	NIMH-ChEFS
272.09	1	3	Incongruent	pII	HAPPY	FEAR	FEAR	1.004	0	F37HA_8965	NIMH-ChEFS
276.135	1	2.5	Congruent	n/a	HAPPY	HAPPY	HAPPY	0.542	1	M12HA_7030	NIMH-ChEFS
279.68	1	3.5	Congruent	n/a	FEAR	FEAR	FEAR	0.684	1	F31FS_7861	NIMH-ChEFS
284.252	1	3.5	Incongruent	pCI	FEAR	HAPPY	FEAR	0.725	1	F3FA_3605	NIMH-ChEFS
288.804	1	3	Incongruent	pII	HAPPY	FEAR	HAPPY	0.78	1	M3HS_4695	NIMH-ChEFS
292.85	1	2.5	Congruent	n/a	FEAR	FEAR	FEAR	0.573	1	M11FA_6969	NIMH-ChEFS
296.397	1	2	Congruent	n/a	HAPPY	HAPPY	HAPPY	0.519	1	F14HS_5590	NIMH-ChEFS
299.472	1	4	Incongruent	pCI	FEAR	HAPPY	FEAR	0.569	1	M12FS_7070	NIMH-ChEFS
304.545	1	3	Incongruent	pII	FEAR	HAPPY	FEAR	0.813	1	F6FS_3906	NIMH-ChEFS
308.616	1	2.5	Congruent	n/a	HAPPY	HAPPY	HAPPY	0.72	1	M7HA_5500	NIMH-ChEFS
312.185	1	4	Congruent	n/a	FEAR	FEAR	HAPPY	0.823	0	F23FA_7228	NIMH-ChEFS
317.251	1	2	Incongruent	pCI	HAPPY	FEAR	HAPPY	0.931	1	F31HA_8583	NIMH-ChEFS
320.319	1	3.5	Incongruent	pII	HAPPY	FEAR	HAPPY	0.571	1	M11HS_6885	NIMH-ChEFS
324.864	1	4	Congruent	n/a	FEAR	FEAR	FEAR	0.494	1	M3FA_4789	NIMH-ChEFS
329.91	1	3.5	Congruent	n/a	FEAR	FEAR	FEAR	0.594	1	F34FS_8257	NIMH-ChEFS
334.478	1	3	Incongruent	pCI	HAPPY	FEAR	HAPPY	0.764	1	M17HS_8732	NIMH-ChEFS
338.528	1	2.5	Incongruent	pII	FEAR	HAPPY	FEAR	0.676	1	F7FA_4040	NIMH-ChEFS
342.075	1	2	Congruent	n/a	HAPPY	HAPPY	HAPPY	0.773	1	F10HS_4372	NIMH-ChEFS
345.146	1	2	Congruent	n/a	FEAR	FEAR	FEAR	0.899	1	M1FS_4325	NIMH-ChEFS
348.193	1	4	Incongruent	pCI	FEAR	HAPPY	FEAR	1.047	1	M6_1FA_5445	NIMH-ChEFS
353.235	1	3	Incongruent	pII	HAPPY	FEAR	FEAR	0.936	0	F35HA_8422	NIMH-ChEFS
357.283	1	2.5	Congruent	n/a	HAPPY	HAPPY	HAPPY	0.975	1	M16HA_8638	NIMH-ChEFS
360.828	1	3.5	Congruent	n/a	FEAR	FEAR	FEAR	0.597	1	F12FS_5036	NIMH-ChEFS
365.399	1	3.5	Incongruent	pCI	HAPPY	FEAR	HAPPY	0.914	1	F1HS_3423	NIMH-ChEFS
369.946	1	4	Incongruent	pII	FEAR	HAPPY	HAPPY	0.902	0	M7FA_5539	NIMH-ChEFS
374.992	1	2.5	Congruent	n/a	FEAR	FEAR	FEAR	0.764	1	F34FA_8267	NIMH-ChEFS
378.562	1	3	Congruent	n/a	HAPPY	HAPPY	HAPPY	0.974	1	M8HS_5817	NIMH-ChEFS
382.611	1	2	Incongruent	pCI	FEAR	HAPPY	FEAR	0.991	1	F23FS_7205	NIMH-ChEFS
385.682	1	3	Incongruent	pII	HAPPY	FEAR	HAPPY	0.998	1	M1HA_4302	NIMH-ChEFS
389.751	1	4	Congruent	n/a	FEAR	FEAR	FEAR	0.811	1	M5FS_5188	NIMH-ChEFS
394.822	1	3.5	Congruent	n/a	HAPPY	HAPPY	HAPPY	0.53	1	F18HA_6193	NIMH-ChEFS
399.369	1	2.5	Incongruent	pCI	FEAR	HAPPY	FEAR	0.742	1	M20FA_9277	NIMH-ChEFS
402.921	1	2	Incongruent	pII	FEAR	HAPPY	FEAR	0.764	1	F10FA_4434	NIMH-ChEFS
405.969	1	4	Congruent	n/a	HAPPY	HAPPY	HAPPY	0.962	1	F7HS_3986	NIMH-ChEFS
411.041	1	2	Congruent	n/a	HAPPY	HAPPY	HAPPY	0.481	1	M12HS_7022	NIMH-ChEFS
414.096	1	3	Incongruent	pCI	FEAR	HAPPY	FEAR	0.837	1	M7FS_5530	NIMH-ChEFS
418.164	1	3.5	Incongruent	pII	HAPPY	FEAR	HAPPY	0.642	1	F21HA_6550	NIMH-ChEFS
422.733	1	2.5	Congruent	n/a	HAPPY	HAPPY	HAPPY	0.661	1	M17HA_8742	NIMH-ChEFS
426.3	1	2	Congruent	n/a	FEAR	FEAR	FEAR	0.849	1	F39FS_9475	NIMH-ChEFS
429.346	1	3.5	Incongruent	pCI	HAPPY	FEAR	FEAR	1.104	0	M11HA_6890	NIMH-ChEFS
433.893	1	2.5	Incongruent	pII	FEAR	HAPPY	FEAR	0.562	1	F19FA_6353	NIMH-ChEFS
437.459	1	4	Congruent	n/a	FEAR	FEAR	FEAR	0.753	1	M15FA_8374	NIMH-ChEFS
442.531	1	3	Congruent	n/a	HAPPY	HAPPY	HAPPY	0.535	1	F13HS_5255	NIMH-ChEFS
446.576	1	3	Incongruent	pCI	HAPPY	FEAR	FEAR	0.914	0	M20HS_9191	NIMH-ChEFS
450.648	1	4	Incongruent	pII	FEAR	HAPPY	FEAR	0.713	1	M6FS_5422	NIMH-ChEFS
455.718	1	2.5	Congruent	n/a	HAPPY	HAPPY	HAPPY	0.41	1	F16HA_5934	NIMH-ChEFS
459.265	1	2	Congruent	n/a	FEAR	FEAR	FEAR	0.761	1	M18FA_8913	NIMH-ChEFS
462.31	1	3.5	Incongruent	pCI	HAPPY	FEAR	HAPPY	0.475	1	F39HS_9426	NIMH-ChEFS
466.858	1	3.5	Incongruent	pII	FEAR	HAPPY	FEAR	0.984	1	F3FS_3596	NIMH-ChEFS
471.426	1	4	Congruent	n/a	FEAR	FEAR	FEAR	0.711	1	M8FS_5869	NIMH-ChEFS
476.497	1	2.5	Congruent	n/a	HAPPY	HAPPY	HAPPY	0.615	1	M4HS_4862	NIMH-ChEFS
480.047	1	3	Incongruent	pCI	HAPPY	FEAR	HAPPY	0.772	1	F2HA_3451	NIMH-ChEFS
484.096	1	2	Incongruent	pII	HAPPY	FEAR	HAPPY	0.652	1	M10HA_6772	NIMH-ChEFS
487.142	1	3.5	Congruent	n/a	FEAR	FEAR	FEAR	0.462	1	F18FS_6229	NIMH-ChEFS
491.689	1	3	Congruent	n/a	HAPPY	HAPPY	HAPPY	0.583	1	F31HS_8581	NIMH-ChEFS
495.737	1	4	Incongruent	pCI	FEAR	HAPPY	HAPPY	0.703	0	M12FA_7082	NIMH-ChEFS
500.782	1	2.5	Incongruent	pII	HAPPY	FEAR	HAPPY	0.564	1	F12HA_5004	NIMH-ChEFS
504.334	1	2	Congruent	n/a	FEAR	FEAR	FEAR	0.741	1	F6FA_3922	NIMH-ChEFS
507.402	1	2.5	Congruent	n/a	HAPPY	HAPPY	HAPPY	1.142	1	M5HS_5134	NIMH-ChEFS
510.97	1	2	Incongruent	pCI	HAPPY	FEAR	FEAR	0.74	0	M14HS_7912	NIMH-ChEFS
514.014	1	3	Incongruent	pII	FEAR	HAPPY	FEAR	0.954	1	F32FS_8041	NIMH-ChEFS
518.057	1	3.5	Congruent	n/a	FEAR	FEAR	FEAR	0.643	1	M19FA_9129	NIMH-ChEFS
522.628	1	4	Congruent	n/a	HAPPY	HAPPY	HAPPY	0.471	1	F34HS_8209	NIMH-ChEFS
527.697	1	2	Incongruent	pCI	HAPPY	FEAR	HAPPY	0.536	1	M18HA_8854	NIMH-ChEFS
530.769	1	3.5	Incongruent	pII	FEAR	HAPPY	HAPPY	0.996	0	F16FA_5992	NIMH-ChEFS
535.315	1	4	Congruent	n/a	FEAR	FEAR	FEAR	0.845	1	F37FS_9007	NIMH-ChEFS
540.364	1	2.5	Congruent	n/a	HAPPY	HAPPY	HAPPY	0.418	1	M3HA_4707	NIMH-ChEFS
543.933	1	3	Incongruent	pCI	FEAR	HAPPY	HAPPY	0.612	0	M15FS_8364	NIMH-ChEFS
548.004	1	3	Incongruent	pII	FEAR	HAPPY	FEAR	0.818	1	F13FA_5314	NIMH-ChEFS
552.05	1	2.5	Congruent	n/a	HAPPY	HAPPY	HAPPY	0.867	1	F14HA_5595	NIMH-ChEFS
555.596	1	4	Congruent	n/a	FEAR	FEAR	FEAR	0.811	1	M5FA_5198	NIMH-ChEFS
560.667	1	3.5	Incongruent	pCI	FEAR	HAPPY	FEAR	0.751	1	F2FA_3491	NIMH-ChEFS
565.218	1	2	Incongruent	pII	HAPPY	FEAR	FEAR	0.843	0	F23HS_7148	NIMH-ChEFS
568.263	1	3	Congruent	n/a	FEAR	FEAR	FEAR	0.698	1	M18FS_8888	NIMH-ChEFS
572.309	1	2	Congruent	n/a	HAPPY	HAPPY	HAPPY	0.638	1	F30HA_8500	NIMH-ChEFS
575.38	1	3.5	Incongruent	pCI	HAPPY	FEAR	HAPPY	0.695	1	M7HS_5497	NIMH-ChEFS
579.928	1	2.5	Incongruent	pII	FEAR	HAPPY	FEAR	0.91	1	F14FS_5632	NIMH-ChEFS
583.499	1	4	Congruent	n/a	HAPPY	HAPPY	HAPPY	0.787	1	M2HA_4506	NIMH-ChEFS
588.567	1	2	Congruent	n/a	FEAR	FEAR	FEAR	0.642	1	F21FA_6608	NIMH-ChEFS
591.636	1	3	Incongruent	pCI	HAPPY	FEAR	HAPPY	1.039	1	F6HS_3875	NIMH-ChEFS
595.679	1	2.5	Incongruent	pII	HAPPY	FEAR	HAPPY	0.613	1	M19HS_9059	NIMH-ChEFS
599.248	1	3.5	Congruent	n/a	FEAR	FEAR	FEAR	0.636	1	F4FS_3704	NIMH-ChEFS
603.82	1	4	Congruent	n/a	HAPPY	HAPPY	HAPPY	0.673	1	F32HA_7998	NIMH-ChEFS
608.891	1	3.5	Incongruent	pCI	HAPPY	FEAR	HAPPY	0.83	1	M6HA_5360	NIMH-ChEFS
613.435	1	2.5	Incongruent	pII	FEAR	HAPPY	FEAR	0.995	1	M16FA_8681	NIMH-ChEFS
616.997	1	4	Congruent	n/a	HAPPY	HAPPY	no_resp	-0.099	0	F19HS_6297	NIMH-ChEFS
622.039	1	2	Congruent	n/a	FEAR	FEAR	FEAR	0.871	1	F35FA_8465	NIMH-ChEFS
625.109	1	3	Incongruent	pCI	FEAR	HAPPY	HAPPY	0.58	0	M4FS_4935	NIMH-ChEFS
629.18	1	4	Incongruent	pII	HAPPY	FEAR	HAPPY	0.754	1	F37HS_8954	NIMH-ChEFS
634.227	1	2.5	Congruent	n/a	FEAR	FEAR	FEAR	0.507	1	F30FS_8546	NIMH-ChEFS
637.796	1	3	Congruent	n/a	HAPPY	HAPPY	HAPPY	0.583	1	M9HS_6054	NIMH-ChEFS
641.865	1	3.5	Incongruent	pCI	FEAR	HAPPY	FEAR	0.777	1	F31FA_7873	NIMH-ChEFS
646.435	1	2	Incongruent	pII	HAPPY	FEAR	FEAR	0.831	0	F4HA_3668	NIMH-ChEFS
649.479	1	3.5	Congruent	n/a	HAPPY	HAPPY	HAPPY	0.821	1	M15HA_8321	NIMH-ChEFS
654.026	1	3	Incongruent	pCI	HAPPY	FEAR	HAPPY	0.66	1	F3HS_3540	NIMH-ChEFS
658.074	1	2.5	Incongruent	pII	FEAR	HAPPY	HAPPY	0.919	0	M20FS_9236	NIMH-ChEFS
