onset	duration	interstimulus_interval	trial_type	trial_type_2	target_condition	distractor	response	response_time	correct	identifier	database
0.068	1	2	Congruent	n/a	FEAR	FEAR	FEAR	1.336	1	M9FS_6104	NIMH-ChEFS
3.125	1	3	Congruent	n/a	HAPPY	HAPPY	HAPPY	0.727	1	F13HA_5265	NIMH-ChEFS
7.181	1	3.5	Incongruent	pCI	HAPPY	FEAR	HAPPY	1.087	1	M4HA_4877	NIMH-ChEFS
11.745	1	4	Incongruent	pII	FEAR	HAPPY	FEAR	0.679	1	F7FS_4016	NIMH-ChEFS
16.8	1	2.5	Congruent	n/a	HAPPY	HAPPY	HAPPY	0.844	1	F30HS_8495	NIMH-ChEFS
20.351	1	3	Congruent	n/a	FEAR	FEAR	FEAR	0.852	1	M4FA_4941	NIMH-ChEFS
24.402	1	2.5	Incongruent	pCI	FEAR	HAPPY	HAPPY	0.677	0	F32FA_8053	NIMH-ChEFS
27.953	1	3.5	Incongruent	pII	HAPPY	FEAR	HAPPY	1.07	1	M10HS_6767	NIMH-ChEFS
32.503	1	4	Congruent	n/a	HAPPY	HAPPY	HAPPY	1.338	1	F23HA_7156	NIMH-ChEFS
37.55	1	2	Congruent	n/a	FEAR	FEAR	FEAR	1.266	1	F13FS_5292	NIMH-ChEFS
40.598	1	3.5	Incongruent	pCI	HAPPY	FEAR	HAPPY	0.913	1	F4HS_3664	NIMH-ChEFS
45.147	1	2	Incongruent	pII	HAPPY	FEAR	HAPPY	1.007	1	M20HA_9192	NIMH-ChEFS
48.222	1	2.5	Congruent	n/a	FEAR	FEAR	FEAR	0.723	1	F18FA_6243	NIMH-ChEFS
51.767	1	4	Congruent	n/a	HAPPY	HAPPY	HAPPY	0.916	1	M18HS_8848	NIMH-ChEFS
56.813	1	3	Incongruent	pCI	FEAR	HAPPY	FEAR	0.846	1	M14FS_7958	NIMH-ChEFS
60.863	1	2	Incongruent	pII	HAPPY	FEAR	HAPPY	0.926	1	F39HA_9433	NIMH-ChEFS
63.912	1	4	Congruent	n/a	FEAR	FEAR	FEAR	0.864	1	M10_FA_6823	NIMH-ChEFS
68.961	1	2.5	Congruent	n/a	HAPPY	HAPPY	HAPPY	0.753	1	F12HS_5000	NIMH-ChEFS
72.511	1	3.5	Incongruent	pCI	FEAR	HAPPY	FEAR	0.966	1	M17FA_8799	NIMH-ChEFS
77.062	1	3	Incongruent	pII	FEAR	HAPPY	FEAR	0.965	1	F2FS_3470	NIMH-ChEFS
81.11	1	3	Congruent	n/a	HAPPY	HAPPY	HAPPY	0.916	1	M14HA_7913	NIMH-ChEFS
85.161	1	4	Congruent	n/a	HAPPY	HAPPY	HAPPY	1.315	1	F7HA_3985	NIMH-ChEFS
90.206	1	2.5	Incongruent	pCI	FEAR	HAPPY	FEAR	0.823	1	M2FS_4636	NIMH-ChEFS
93.757	1	2	Incongruent	pII	HAPPY	FEAR	HAPPY	0.824	1	F18HS_6186	NIMH-ChEFS
96.808	1	3.5	Congruent	n/a	FEAR	FEAR	FEAR	0.672	1	F39FA_9489	NIMH-ChEFS
101.357	1	2	Congruent	n/a	HAPPY	HAPPY	HAPPY	0.751	1	M2HS_4493	NIMH-ChEFS
104.406	1	3.5	Incongruent	pCI	HAPPY	FEAR	HAPPY	1.116	1	F1HA_3424	NIMH-ChEFS
108.955	1	3	Incongruent	pII	FEAR	HAPPY	FEAR	1.119	1	M6FA__5449	NIMH-ChEFS
113.009	1	4	Congruent	n/a	FEAR	FEAR	FEAR	0.968	1	M19FS_9117	NIMH-ChEFS
118.062	1	2.5	Congruent	n/a	HAPPY	HAPPY	HAPPY	0.956	1	F35HS_8418	NIMH-ChEFS
121.612	1	3.5	Incongruent	pCI	FEAR	HAPPY	FEAR	1.372	1	F16FS_5978	NIMH-ChEFS
126.163	1	2	Incongruent	pII	FEAR	HAPPY	FEAR	1.09	1	M1FA_4336	NIMH-ChEFS
129.217	1	2.5	Congruent	n/a	HAPPY	HAPPY	HAPPY	0.812	1	M9HA_6057	NIMH-ChEFS
132.767	1	3	Congruent	n/a	FEAR	FEAR	FEAR	0.836	1	F4FA_3712	NIMH-ChEFS
136.817	1	4	Incongruent	pCI	HAPPY	FEAR	HAPPY	1.023	1	M15HS_8316	NIMH-ChEFS
141.865	1	3	Incongruent	pII	FEAR	HAPPY	FEAR	1.263	1	F21FS_6587	NIMH-ChEFS
145.913	1	4	Congruent	n/a	HAPPY	HAPPY	HAPPY	0.677	1	F19HA_6311	NIMH-ChEFS
150.962	1	3.5	Congruent	n/a	FEAR	FEAR	FEAR	0.805	1	M10_4FS_6817	NIMH-ChEFS
155.513	1	2.5	Incongruent	pCI	HAPPY	FEAR	HAPPY	0.659	1	F2HS_3448	NIMH-ChEFS
159.066	1	2	Incongruent	pII	HAPPY	FEAR	FEAR	0.808	0	F10HA_4379	NIMH-ChEFS
162.109	1	2	Congruent	n/a	FEAR	FEAR	FEAR	1.45	1	M14FA_7960	NIMH-ChEFS
165.155	1	3	Congruent	n/a	FEAR	FEAR	FEAR	1.032	1	F30FA_8552	NIMH-ChEFS
169.207	1	4	Incongruent	pCI	HAPPY	FEAR	FEAR	0.588	0	M8HA_5828	NIMH-ChEFS
174.261	1	2.5	Incongruent	pII	FEAR	HAPPY	FEAR	1.025	1	F35FS_8451	NIMH-ChEFS
177.808	1	3.5	Congruent	n/a	HAPPY	HAPPY	HAPPY	0.779	1	M1HS_4301	NIMH-ChEFS
182.362	1	3	Congruent	n/a	FEAR	FEAR	FEAR	0.872	1	F37FA_9020	NIMH-ChEFS
186.414	1	4	Incongruent	pCI	FEAR	HAPPY	FEAR	1.571	1	M11FS_6953	NIMH-ChEFS
191.465	1	2	Incongruent	pII	HAPPY	FEAR	HAPPY	0.969	1	F34HA_8219	NIMH-ChEFS
194.516	1	2.5	Congruent	n/a	FEAR	FEAR	FEAR	0.755	1	F10FS_4426	NIMH-ChEFS
198.066	1	3.5	Congruent	n/a	HAPPY	HAPPY	HAPPY	0.724	1	M16HS_8633	NIMH-ChEFS
202.614	1	2	Incongruent	pCI	HAPPY	FEAR	FEAR	1.233	0	M5HA_5140	NIMH-ChEFS
205.664	1	3	Incongruent	pII	FEAR	HAPPY	FEAR	1.103	1	F12FA_5062	NIMH-ChEFS
209.716	1	2.5	Congruent	n/a	HAPPY	HAPPY	HAPPY	0.752	1	F16HS_5924	NIMH-ChEFS
213.263	1	4	Congruent	n/a	FEAR	FEAR	FEAR	0.929	1	M2FA_4644	NIMH-ChEFS
218.314	1	3.5	Incongruent	pCI	FEAR	HAPPY	FEAR	0.954	1	M16FS_8676	NIMH-ChEFS
222.864	1	4	Incongruent	pII	HAPPY	FEAR	HAPPY	0.852	1	F6HA_3882	NIMH-ChEFS
227.914	1	2	Congruent	n/a	FEAR	FEAR	FEAR	1.481	1	F19FS_6344	NIMH-ChEFS
230.964	1	2.5	Congruent	n/a	FEAR	FEAR	FEAR	1.028	1	M8FA_5885	NIMH-ChEFS
234.513	1	3.5	Incongruent	pCI	HAPPY	FEAR	HAPPY	0.728	1	F32HS_7996	NIMH-ChEFS
239.062	1	3	Incongruent	pII	HAPPY	FEAR	HAPPY	1.568	1	M19HA_9066	NIMH-ChEFS
243.112	1	3.5	Congruent	n/a	FEAR	FEAR	FEAR	0.84	1	M3FS_4775	NIMH-ChEFS
247.662	1	4	Congruent	n/a	HAPPY	HAPPY	HAPPY	1.114	1	F3HA_3545	NIMH-ChEFS
252.712	1	2.5	Incongruent	pCI	FEAR	HAPPY	FEAR	1.33	1	M9FA_6121	NIMH-ChEFS
256.261	1	2	Incongruent	pII	FEAR	HAPPY	FEAR	1.463	1	F14FA_5638	NIMH-ChEFS
259.311	1	3	Congruent	n/a	HAPPY	HAPPY	HAPPY	0.822	1	M6HS_5354	NIMH-ChEFS
263.36	1	2.5	Congruent	n/a	HAPPY	HAPPY	HAPPY	0.785	1	F21HS_6544	NIMH-ChEFS
266.91	1	3.5	Incongruent	pCI	FEAR	HAPPY	FEAR	1.001	1	M17FS_8783	NIMH-ChEFS
271.459	1	2	Incongruent	pII	HAPPY	FEAR	HAPPY	1.688	1	F37HA_8965	NIMH-ChEFS
274.508	1	4	Congruent	n/a	HAPPY	HAPPY	HAPPY	0.831	1	M12HA_7030	NIMH-ChEFS
279.558	1	3	Congruent	n/a	FEAR	FEAR	FEAR	0.969	1	F31FS_7861	NIMH-ChEFS
283.607	1	2	Incongruent	pCI	FEAR	HAPPY	FEAR	0.947	1	F3FA_3605	NIMH-ChEFS
286.653	1	4	Incongruent	pII	HAPPY	FEAR	HAPPY	0.891	1	M3HS_4695	NIMH-ChEFS
291.729	1	3.5	Congruent	n/a	FEAR	FEAR	FEAR	0.949	1	M11FA_6969	NIMH-ChEFS
296.28	1	3	Congruent	n/a	HAPPY	HAPPY	HAPPY	0.789	1	F14HS_5590	NIMH-ChEFS
300.335	1	2.5	Incongruent	pCI	FEAR	HAPPY	FEAR	1.19	1	M12FS_7070	NIMH-ChEFS
303.885	1	3	Incongruent	pII	FEAR	HAPPY	FEAR	2.024	1	F6FS_3906	NIMH-ChEFS
307.941	1	2	Congruent	n/a	HAPPY	HAPPY	HAPPY	0.72	1	M7HA_5500	NIMH-ChEFS
310.99	1	3.5	Congruent	n/a	FEAR	FEAR	FEAR	1.128	1	F23FA_7228	NIMH-ChEFS
315.539	1	4	Incongruent	pCI	HAPPY	FEAR	HAPPY	0.644	1	F31HA_8583	NIMH-ChEFS
320.615	1	2.5	Incongruent	pII	HAPPY	FEAR	HAPPY	1.144	1	M11HS_6885	NIMH-ChEFS
324.19	1	2	Congruent	n/a	FEAR	FEAR	FEAR	0.843	1	M3FA_4789	NIMH-ChEFS
327.236	1	4	Congruent	n/a	FEAR	FEAR	FEAR	0.839	1	F34FS_8257	NIMH-ChEFS
332.284	1	3.5	Incongruent	pCI	HAPPY	FEAR	HAPPY	0.995	1	M17HS_8732	NIMH-ChEFS
336.836	1	3	Incongruent	pII	FEAR	HAPPY	FEAR	0.872	1	F7FA_4040	NIMH-ChEFS
340.886	1	2.5	Congruent	n/a	HAPPY	HAPPY	HAPPY	0.865	1	F10HS_4372	NIMH-ChEFS
344.437	1	3.5	Congruent	n/a	FEAR	FEAR	FEAR	0.872	1	M1FS_4325	NIMH-ChEFS
348.988	1	2	Incongruent	pCI	FEAR	HAPPY	FEAR	0.973	1	M6_1FA_5445	NIMH-ChEFS
352.035	1	2.5	Incongruent	pII	HAPPY	FEAR	HAPPY	1.076	1	F35HA_8422	NIMH-ChEFS
355.582	1	4	Congruent	n/a	HAPPY	HAPPY	HAPPY	1.038	1	M16HA_8638	NIMH-ChEFS
360.631	1	3	Congruent	n/a	FEAR	FEAR	FEAR	1.116	1	F12FS_5036	NIMH-ChEFS
364.679	1	4	Incongruent	pCI	HAPPY	FEAR	HAPPY	1.213	1	F1HS_3423	NIMH-ChEFS
369.729	1	2	Incongruent	pII	FEAR	HAPPY	FEAR	1.252	1	M7FA_5539	NIMH-ChEFS
372.78	1	2.5	Congruent	n/a	FEAR	FEAR	FEAR	1.129	1	F34FA_8267	NIMH-ChEFS
376.327	1	3.5	Congruent	n/a	HAPPY	HAPPY	HAPPY	0.685	1	M8HS_5817	NIMH-ChEFS
380.877	1	3	Incongruent	pCI	FEAR	HAPPY	FEAR	0.987	1	F23FS_7205	NIMH-ChEFS
384.927	1	2	Incongruent	pII	HAPPY	FEAR	FEAR	0.989	0	M1HA_4302	NIMH-ChEFS
387.981	1	3.5	Congruent	n/a	FEAR	FEAR	FEAR	0.826	1	M5FS_5188	NIMH-ChEFS
392.532	1	3	Congruent	n/a	HAPPY	HAPPY	HAPPY	0.814	1	F18HA_6193	NIMH-ChEFS
396.584	1	2.5	Incongruent	pCI	FEAR	HAPPY	FEAR	0.956	1	M20FA_9277	NIMH-ChEFS
400.161	1	4	Incongruent	pII	FEAR	HAPPY	FEAR	1.312	1	F10FA_4434	NIMH-ChEFS
405.208	1	4	Congruent	n/a	HAPPY	HAPPY	HAPPY	1.065	1	F7HS_3986	NIMH-ChEFS
410.258	1	3	Congruent	n/a	HAPPY	HAPPY	HAPPY	1.095	1	M12HS_7022	NIMH-ChEFS
414.311	1	3.5	Incongruent	pCI	FEAR	HAPPY	FEAR	1.066	1	M7FS_5530	NIMH-ChEFS
418.861	1	2.5	Incongruent	pII	HAPPY	FEAR	HAPPY	1.05	1	F21HA_6550	NIMH-ChEFS
422.41	1	2	Congruent	n/a	HAPPY	HAPPY	HAPPY	1.291	1	M17HA_8742	NIMH-ChEFS
425.458	1	2	Congruent	n/a	FEAR	FEAR	FEAR	1.502	1	F39FS_9475	NIMH-ChEFS
428.512	1	3	Incongruent	pCI	HAPPY	FEAR	HAPPY	0.979	1	M11HA_6890	NIMH-ChEFS
432.562	1	2.5	Incongruent	pII	FEAR	HAPPY	FEAR	0.907	1	F19FA_6353	NIMH-ChEFS
436.11	1	4	Congruent	n/a	FEAR	FEAR	FEAR	2.003	1	M15FA_8374	NIMH-ChEFS
441.189	1	3.5	Congruent	n/a	HAPPY	HAPPY	HAPPY	0.732	1	F13HS_5255	NIMH-ChEFS
445.74	1	3.5	Incongruent	pCI	HAPPY	FEAR	HAPPY	1.194	1	M20HS_9191	NIMH-ChEFS
450.291	1	2	Incongruent	pII	FEAR	HAPPY	FEAR	1.415	1	M6FS_5422	NIMH-ChEFS
453.368	1	2.5	Congruent	n/a	HAPPY	HAPPY	HAPPY	0.918	1	F16HA_5934	NIMH-ChEFS
456.914	1	3	Congruent	n/a	FEAR	FEAR	FEAR	1.745	1	M18FA_8913	NIMH-ChEFS
460.965	1	4	Incongruent	pCI	HAPPY	FEAR	HAPPY	1.455	1	F39HS_9426	NIMH-ChEFS
466.015	1	2	Incongruent	pII	FEAR	HAPPY	FEAR	1.575	1	F3FS_3596	NIMH-ChEFS
469.064	1	4	Congruent	n/a	FEAR	FEAR	FEAR	1.373	1	M8FS_5869	NIMH-ChEFS
474.112	1	3.5	Congruent	n/a	HAPPY	HAPPY	HAPPY	0.756	1	M4HS_4862	NIMH-ChEFS
478.665	1	2.5	Incongruent	pCI	HAPPY	FEAR	HAPPY	2.146	1	F2HA_3451	NIMH-ChEFS
482.215	1	3	Incongruent	pII	HAPPY	FEAR	HAPPY	2.153	1	M10HA_6772	NIMH-ChEFS
486.263	1	3.5	Congruent	n/a	FEAR	FEAR	FEAR	1.279	1	F18FS_6229	NIMH-ChEFS
490.814	1	3	Congruent	n/a	HAPPY	HAPPY	HAPPY	0.867	1	F31HS_8581	NIMH-ChEFS
494.864	1	2	Incongruent	pCI	FEAR	HAPPY	FEAR	1.058	1	M12FA_7082	NIMH-ChEFS
497.912	1	2.5	Incongruent	pII	HAPPY	FEAR	FEAR	1.688	0	F12HA_5004	NIMH-ChEFS
501.461	1	4	Congruent	n/a	FEAR	FEAR	FEAR	0.933	1	F6FA_3922	NIMH-ChEFS
506.511	1	3.5	Congruent	n/a	HAPPY	HAPPY	HAPPY	0.878	1	M5HS_5134	NIMH-ChEFS
511.058	1	4	Incongruent	pCI	HAPPY	FEAR	HAPPY	1.313	1	M14HS_7912	NIMH-ChEFS
516.11	1	3	Incongruent	pII	FEAR	HAPPY	FEAR	1.471	1	F32FS_8041	NIMH-ChEFS
520.16	1	2.5	Congruent	n/a	FEAR	FEAR	no_resp	-0.099	0	M19FA_9129	NIMH-ChEFS
523.705	1	2	Congruent	n/a	HAPPY	HAPPY	HAPPY	1.038	1	F34HS_8209	NIMH-ChEFS
526.754	1	3.5	Incongruent	pCI	HAPPY	FEAR	HAPPY	0.817	1	M18HA_8854	NIMH-ChEFS
531.305	1	4	Incongruent	pII	FEAR	HAPPY	FEAR	0.818	1	F16FA_5992	NIMH-ChEFS
536.355	1	2.5	Congruent	n/a	FEAR	FEAR	FEAR	1.336	1	F37FS_9007	NIMH-ChEFS
539.904	1	3	Congruent	n/a	HAPPY	HAPPY	HAPPY	1.017	1	M3HA_4707	NIMH-ChEFS
543.955	1	2	Incongruent	pCI	FEAR	HAPPY	FEAR	0.886	1	M15FS_8364	NIMH-ChEFS
547.007	1	3.5	Incongruent	pII	FEAR	HAPPY	FEAR	1.264	1	F13FA_5314	NIMH-ChEFS
551.553	1	2	Congruent	n/a	HAPPY	HAPPY	HAPPY	1.624	1	F14HA_5595	NIMH-ChEFS
554.602	1	2.5	Congruent	n/a	FEAR	FEAR	FEAR	1.081	1	M5FA_5198	NIMH-ChEFS
558.151	1	3	Incongruent	pCI	FEAR	HAPPY	FEAR	1.597	1	F2FA_3491	NIMH-ChEFS
562.201	1	4	Incongruent	pII	HAPPY	FEAR	HAPPY	1.446	1	F23HS_7148	NIMH-ChEFS
567.25	1	2	Congruent	n/a	FEAR	FEAR	FEAR	1.587	1	M18FS_8888	NIMH-ChEFS
570.301	1	2.5	Congruent	n/a	HAPPY	HAPPY	HAPPY	1.013	1	F30HA_8500	NIMH-ChEFS
573.853	1	3	Incongruent	pCI	HAPPY	FEAR	HAPPY	0.888	1	M7HS_5497	NIMH-ChEFS
577.904	1	3.5	Incongruent	pII	FEAR	HAPPY	FEAR	1.053	1	F14FS_5632	NIMH-ChEFS
582.453	1	4	Congruent	n/a	HAPPY	HAPPY	HAPPY	1.117	1	M2HA_4506	NIMH-ChEFS
587.501	1	4	Congruent	n/a	FEAR	FEAR	FEAR	0.985	1	F21FA_6608	NIMH-ChEFS
592.551	1	2.5	Incongruent	pCI	HAPPY	FEAR	HAPPY	1.701	1	F6HS_3875	NIMH-ChEFS
596.099	1	2	Incongruent	pII	HAPPY	FEAR	HAPPY	1.547	1	M19HS_9059	NIMH-ChEFS
599.147	1	3	Congruent	n/a	FEAR	FEAR	FEAR	1.169	1	F4FS_3704	NIMH-ChEFS
603.204	1	3.5	Congruent	n/a	HAPPY	HAPPY	HAPPY	1.232	1	F32HA_7998	NIMH-ChEFS
607.752	1	3	Incongruent	pCI	HAPPY	FEAR	HAPPY	1.766	1	M6HA_5360	NIMH-ChEFS
611.803	1	3.5	Incongruent	pII	FEAR	HAPPY	FEAR	1.019	1	M16FA_8681	NIMH-ChEFS
616.355	1	4	Congruent	n/a	HAPPY	HAPPY	HAPPY	0.713	1	F19HS_6297	NIMH-ChEFS
621.405	1	2.5	Congruent	n/a	FEAR	FEAR	FEAR	1.204	1	F35FA_8465	NIMH-ChEFS
624.957	1	2	Incongruent	pCI	FEAR	HAPPY	HAPPY	0.667	0	M4FS_4935	NIMH-ChEFS
628.008	1	3.5	Incongruent	pII	HAPPY	FEAR	HAPPY	1.947	1	F37HS_8954	NIMH-ChEFS
632.555	1	2	Congruent	n/a	FEAR	FEAR	FEAR	1.731	1	F30FS_8546	NIMH-ChEFS
635.604	1	3	Congruent	n/a	HAPPY	HAPPY	HAPPY	1.044	1	M9HS_6054	NIMH-ChEFS
639.655	1	4	Incongruent	pCI	FEAR	HAPPY	FEAR	0.934	1	F31FA_7873	NIMH-ChEFS
644.704	1	2.5	Incongruent	pII	HAPPY	FEAR	HAPPY	1.22	1	F4HA_3668	NIMH-ChEFS
648.255	1	3	Congruent	n/a	HAPPY	HAPPY	HAPPY	1.55	1	M15HA_8321	NIMH-ChEFS
652.303	1	2	Incongruent	pCI	HAPPY	FEAR	HAPPY	1.009	1	F3HS_3540	NIMH-ChEFS
655.348	1	2.5	Incongruent	pII	FEAR	HAPPY	FEAR	0.923	1	M20FS_9236	NIMH-ChEFS
