onset	duration	interstimulus_interval	trial_type	trial_type_2	target_condition	distractor	response	response_time	correct	identifier	database
0.073	1	3.5	Congruent	n/a	FEAR	FEAR	FEAR	0.633	1	M9FS_6104	NIMH-ChEFS
4.657	1	4	Congruent	n/a	HAPPY	HAPPY	FEAR	0.505	0	F13HA_5265	NIMH-ChEFS
9.737	1	2	Incongruent	pCI	HAPPY	FEAR	HAPPY	0.733	1	M4HA_4877	NIMH-ChEFS
12.828	1	2.5	Incongruent	pII	FEAR	HAPPY	HAPPY	0.875	0	F7FS_4016	NIMH-ChEFS
16.409	1	3	Congruent	n/a	HAPPY	HAPPY	HAPPY	0.733	1	F30HS_8495	NIMH-ChEFS
20.476	1	4	Congruent	n/a	FEAR	FEAR	FEAR	0.468	1	M4FA_4941	NIMH-ChEFS
25.535	1	2	Incongruent	pCI	FEAR	HAPPY	FEAR	0.914	1	F32FA_8053	NIMH-ChEFS
28.598	1	3.5	Incongruent	pII	HAPPY	FEAR	HAPPY	1.047	1	M10HS_6767	NIMH-ChEFS
33.161	1	2.5	Congruent	n/a	HAPPY	HAPPY	HAPPY	0.33	1	F23HA_7156	NIMH-ChEFS
36.719	1	3	Congruent	n/a	FEAR	FEAR	FEAR	0.311	1	F13FS_5292	NIMH-ChEFS
40.777	1	4	Incongruent	pCI	HAPPY	FEAR	FEAR	0.261	0	F4HS_3664	NIMH-ChEFS
45.832	1	3	Incongruent	pII	HAPPY	FEAR	HAPPY	0.236	1	M20HA_9192	NIMH-ChEFS
49.917	1	2.5	Congruent	n/a	FEAR	FEAR	FEAR	0.305	1	F18FA_6243	NIMH-ChEFS
53.501	1	3.5	Congruent	n/a	HAPPY	HAPPY	HAPPY	0.291	1	M18HS_8848	NIMH-ChEFS
58.083	1	2	Incongruent	pCI	FEAR	HAPPY	FEAR	0.683	1	M14FS_7958	NIMH-ChEFS
61.15	1	4	Incongruent	pII	HAPPY	FEAR	HAPPY	0.884	1	F39HA_9433	NIMH-ChEFS
66.213	1	2.5	Congruent	n/a	FEAR	FEAR	FEAR	0.511	1	M10_FA_6823	NIMH-ChEFS
69.773	1	3.5	Congruent	n/a	HAPPY	HAPPY	HAPPY	0.362	1	F12HS_5000	NIMH-ChEFS
74.356	1	2	Incongruent	pCI	FEAR	HAPPY	HAPPY	0.272	0	M17FA_8799	NIMH-ChEFS
77.42	1	3	Incongruent	pII	FEAR	HAPPY	FEAR	0.351	1	F2FS_3470	NIMH-ChEFS
81.484	1	2.5	Congruent	n/a	HAPPY	HAPPY	HAPPY	0.456	1	M14HA_7913	NIMH-ChEFS
85.049	1	2	Congruent	n/a	HAPPY	HAPPY	HAPPY	0.666	1	F7HA_3985	NIMH-ChEFS
88.112	1	4	Incongruent	pCI	FEAR	HAPPY	FEAR	0.604	1	M2FS_4636	NIMH-ChEFS
93.175	1	3	Incongruent	pII	HAPPY	FEAR	HAPPY	0.482	1	F18HS_6186	NIMH-ChEFS
97.227	1	3.5	Congruent	n/a	FEAR	FEAR	FEAR	0.365	1	F39FA_9489	NIMH-ChEFS
101.811	1	2	Congruent	n/a	HAPPY	HAPPY	HAPPY	0.651	1	M2HS_4493	NIMH-ChEFS
104.868	1	3	Incongruent	pCI	HAPPY	FEAR	FEAR	0.956	0	F1HA_3424	NIMH-ChEFS
108.931	1	3.5	Incongruent	pII	FEAR	HAPPY	HAPPY	0.298	0	M6FA__5449	NIMH-ChEFS
113.491	1	2.5	Congruent	n/a	FEAR	FEAR	FEAR	0.393	1	M19FS_9117	NIMH-ChEFS
117.056	1	4	Congruent	n/a	HAPPY	HAPPY	HAPPY	0.582	1	F35HS_8418	NIMH-ChEFS
122.138	1	3	Incongruent	pCI	FEAR	HAPPY	FEAR	0.576	1	F16FS_5978	NIMH-ChEFS
126.219	1	4	Incongruent	pII	FEAR	HAPPY	FEAR	0.971	1	M1FA_4336	NIMH-ChEFS
131.283	1	3.5	Congruent	n/a	HAPPY	HAPPY	FEAR	0.585	0	M9HA_6057	NIMH-ChEFS
135.845	1	2.5	Congruent	n/a	FEAR	FEAR	HAPPY	0.168	0	F4FA_3712	NIMH-ChEFS
139.412	1	2	Incongruent	pCI	HAPPY	FEAR	HAPPY	0.78	1	M15HS_8316	NIMH-ChEFS
142.476	1	2	Incongruent	pII	FEAR	HAPPY	FEAR	0.405	1	F21FS_6587	NIMH-ChEFS
145.535	1	4	Congruent	n/a	HAPPY	HAPPY	HAPPY	0.564	1	F19HA_6311	NIMH-ChEFS
150.597	1	3.5	Congruent	n/a	FEAR	FEAR	FEAR	0.34	1	M10_4FS_6817	NIMH-ChEFS
155.154	1	3	Incongruent	pCI	HAPPY	FEAR	HAPPY	0.692	1	F2HS_3448	NIMH-ChEFS
159.217	1	2.5	Incongruent	pII	HAPPY	FEAR	HAPPY	0.862	1	F10HA_4379	NIMH-ChEFS
162.797	1	4	Congruent	n/a	FEAR	FEAR	FEAR	0.534	1	M14FA_7960	NIMH-ChEFS
167.856	1	3	Congruent	n/a	FEAR	FEAR	FEAR	0.514	1	F30FA_8552	NIMH-ChEFS
171.937	1	3.5	Incongruent	pCI	HAPPY	FEAR	HAPPY	0.638	1	M8HA_5828	NIMH-ChEFS
176.505	1	2	Incongruent	pII	FEAR	HAPPY	HAPPY	0.664	0	F35FS_8451	NIMH-ChEFS
179.561	1	2.5	Congruent	n/a	HAPPY	HAPPY	FEAR	0.49	0	M1HS_4301	NIMH-ChEFS
183.115	1	2.5	Congruent	n/a	FEAR	FEAR	FEAR	0.587	1	F37FA_9020	NIMH-ChEFS
186.68	1	3.5	Incongruent	pCI	FEAR	HAPPY	FEAR	0.772	1	M11FS_6953	NIMH-ChEFS
191.244	1	3	Incongruent	pII	HAPPY	FEAR	FEAR	0.621	0	F34HA_8219	NIMH-ChEFS
195.327	1	4	Congruent	n/a	FEAR	FEAR	FEAR	0.636	1	F10FS_4426	NIMH-ChEFS
200.39	1	2	Congruent	n/a	HAPPY	HAPPY	HAPPY	0.714	1	M16HS_8633	NIMH-ChEFS
203.468	1	3	Incongruent	pCI	HAPPY	FEAR	HAPPY	0.503	1	M5HA_5140	NIMH-ChEFS
207.55	1	2	Incongruent	pII	FEAR	HAPPY	FEAR	0.636	1	F12FA_5062	NIMH-ChEFS
210.613	1	3.5	Congruent	n/a	HAPPY	HAPPY	HAPPY	1.066	1	F16HS_5924	NIMH-ChEFS
215.177	1	4	Congruent	n/a	FEAR	FEAR	FEAR	0.541	1	M2FA_4644	NIMH-ChEFS
220.236	1	2.5	Incongruent	pCI	FEAR	HAPPY	FEAR	0.699	1	M16FS_8676	NIMH-ChEFS
223.804	1	3.5	Incongruent	pII	HAPPY	FEAR	FEAR	0.45	0	F6HA_3882	NIMH-ChEFS
228.36	1	4	Congruent	n/a	FEAR	FEAR	FEAR	0.192	1	F19FS_6344	NIMH-ChEFS
233.419	1	2.5	Congruent	n/a	FEAR	FEAR	FEAR	0.299	1	M8FA_5885	NIMH-ChEFS
236.977	1	2	Incongruent	pCI	HAPPY	FEAR	FEAR	0.497	0	F32HS_7996	NIMH-ChEFS
240.035	1	3	Incongruent	pII	HAPPY	FEAR	HAPPY	0.827	1	M19HA_9066	NIMH-ChEFS
244.097	1	2.5	Congruent	n/a	FEAR	FEAR	FEAR	0.565	1	M3FS_4775	NIMH-ChEFS
247.66	1	4	Congruent	n/a	HAPPY	HAPPY	HAPPY	0.298	1	F3HA_3545	NIMH-ChEFS
252.723	1	3	Incongruent	pCI	FEAR	HAPPY	HAPPY	0.267	0	M9FA_6121	NIMH-ChEFS
256.792	1	2	Incongruent	pII	FEAR	HAPPY	FEAR	0.408	1	F14FA_5638	NIMH-ChEFS
259.856	1	3.5	Congruent	n/a	HAPPY	HAPPY	HAPPY	0.555	1	M6HS_5354	NIMH-ChEFS
264.411	1	2.5	Congruent	n/a	HAPPY	HAPPY	HAPPY	0.535	1	F21HS_6544	NIMH-ChEFS
267.97	1	2	Incongruent	pCI	FEAR	HAPPY	FEAR	0.401	1	M17FS_8783	NIMH-ChEFS
271.025	1	3	Incongruent	pII	HAPPY	FEAR	FEAR	0.679	0	F37HA_8965	NIMH-ChEFS
275.086	1	3.5	Congruent	n/a	HAPPY	HAPPY	HAPPY	0.456	1	M12HA_7030	NIMH-ChEFS
279.649	1	4	Congruent	n/a	FEAR	FEAR	FEAR	0.4	1	F31FS_7861	NIMH-ChEFS
284.709	1	2	Incongruent	pCI	FEAR	HAPPY	HAPPY	0.34	0	F3FA_3605	NIMH-ChEFS
287.791	1	4	Incongruent	pII	HAPPY	FEAR	FEAR	0.472	0	M3HS_4695	NIMH-ChEFS
292.855	1	3	Congruent	n/a	FEAR	FEAR	FEAR	0.329	1	M11FA_6969	NIMH-ChEFS
296.917	1	3.5	Congruent	n/a	HAPPY	HAPPY	HAPPY	0.717	1	F14HS_5590	NIMH-ChEFS
301.479	1	2.5	Incongruent	pCI	FEAR	HAPPY	FEAR	0.366	1	M12FS_7070	NIMH-ChEFS
305.039	1	3.5	Incongruent	pII	FEAR	HAPPY	FEAR	0.642	1	F6FS_3906	NIMH-ChEFS
309.599	1	2	Congruent	n/a	HAPPY	HAPPY	HAPPY	0.574	1	M7HA_5500	NIMH-ChEFS
312.656	1	4	Congruent	n/a	FEAR	FEAR	FEAR	0.388	1	F23FA_7228	NIMH-ChEFS
317.719	1	3	Incongruent	pCI	HAPPY	FEAR	FEAR	0.614	0	F31HA_8583	NIMH-ChEFS
321.785	1	2.5	Incongruent	pII	HAPPY	FEAR	HAPPY	0.614	1	M11HS_6885	NIMH-ChEFS
325.367	1	2.5	Congruent	n/a	FEAR	FEAR	FEAR	0.527	1	M3FA_4789	NIMH-ChEFS
328.932	1	2	Congruent	n/a	FEAR	FEAR	FEAR	0.424	1	F34FS_8257	NIMH-ChEFS
331.993	1	3	Incongruent	pCI	HAPPY	FEAR	HAPPY	0.633	1	M17HS_8732	NIMH-ChEFS
336.049	1	3.5	Incongruent	pII	FEAR	HAPPY	FEAR	0.517	1	F7FA_4040	NIMH-ChEFS
340.614	1	4	Congruent	n/a	HAPPY	HAPPY	HAPPY	0.505	1	F10HS_4372	NIMH-ChEFS
345.675	1	2	Congruent	n/a	FEAR	FEAR	FEAR	0.541	1	M1FS_4325	NIMH-ChEFS
348.734	1	3.5	Incongruent	pCI	FEAR	HAPPY	HAPPY	0.439	0	M6_1FA_5445	NIMH-ChEFS
353.288	1	4	Incongruent	pII	HAPPY	FEAR	FEAR	0.315	0	F35HA_8422	NIMH-ChEFS
358.349	1	3	Congruent	n/a	HAPPY	HAPPY	HAPPY	0.242	1	M16HA_8638	NIMH-ChEFS
362.415	1	2.5	Congruent	n/a	FEAR	FEAR	FEAR	0.354	1	F12FS_5036	NIMH-ChEFS
365.987	1	2	Incongruent	pCI	HAPPY	FEAR	FEAR	0.323	0	F1HS_3423	NIMH-ChEFS
369.049	1	3.5	Incongruent	pII	FEAR	HAPPY	FEAR	0.518	1	M7FA_5539	NIMH-ChEFS
373.602	1	3	Congruent	n/a	FEAR	FEAR	HAPPY	0.702	0	F34FA_8267	NIMH-ChEFS
377.686	1	2.5	Congruent	n/a	HAPPY	HAPPY	HAPPY	0.687	1	M8HS_5817	NIMH-ChEFS
381.247	1	4	Incongruent	pCI	FEAR	HAPPY	FEAR	0.309	1	F23FS_7205	NIMH-ChEFS
386.308	1	2.5	Incongruent	pII	HAPPY	FEAR	HAPPY	0.276	1	M1HA_4302	NIMH-ChEFS
389.877	1	3	Congruent	n/a	FEAR	FEAR	FEAR	0.481	1	M5FS_5188	NIMH-ChEFS
393.938	1	2	Congruent	n/a	HAPPY	HAPPY	HAPPY	0.616	1	F18HA_6193	NIMH-ChEFS
396.997	1	4	Incongruent	pCI	FEAR	HAPPY	HAPPY	0.684	0	M20FA_9277	NIMH-ChEFS
402.082	1	3.5	Incongruent	pII	FEAR	HAPPY	FEAR	0.347	1	F10FA_4434	NIMH-ChEFS
406.648	1	3.5	Congruent	n/a	HAPPY	HAPPY	HAPPY	0.62	1	F7HS_3986	NIMH-ChEFS
411.208	1	2.5	Congruent	n/a	HAPPY	HAPPY	HAPPY	0.604	1	M12HS_7022	NIMH-ChEFS
414.776	1	3	Incongruent	pCI	FEAR	HAPPY	HAPPY	0.733	0	M7FS_5530	NIMH-ChEFS
418.836	1	2	Incongruent	pII	HAPPY	FEAR	FEAR	0.632	0	F21HA_6550	NIMH-ChEFS
421.919	1	4	Congruent	n/a	HAPPY	HAPPY	HAPPY	1.092	1	M17HA_8742	NIMH-ChEFS
426.983	1	3	Congruent	n/a	FEAR	FEAR	FEAR	0.711	1	F39FS_9475	NIMH-ChEFS
431.045	1	3.5	Incongruent	pCI	HAPPY	FEAR	HAPPY	0.335	1	M11HA_6890	NIMH-ChEFS
435.608	1	4	Incongruent	pII	FEAR	HAPPY	HAPPY	0.528	0	F19FA_6353	NIMH-ChEFS
440.662	1	2.5	Congruent	n/a	FEAR	FEAR	FEAR	0.444	1	M15FA_8374	NIMH-ChEFS
444.244	1	2	Congruent	n/a	HAPPY	HAPPY	no_resp	-0.099	0	F13HS_5255	NIMH-ChEFS
447.3	1	2.5	Incongruent	pCI	HAPPY	FEAR	HAPPY	0.496	1	M20HS_9191	NIMH-ChEFS
450.864	1	3	Incongruent	pII	FEAR	HAPPY	HAPPY	0.31	0	M6FS_5422	NIMH-ChEFS
454.946	1	3.5	Congruent	n/a	HAPPY	HAPPY	FEAR	0.103	0	F16HA_5934	NIMH-ChEFS
459.511	1	2	Congruent	n/a	FEAR	FEAR	FEAR	0.669	1	M18FA_8913	NIMH-ChEFS
462.591	1	4	Incongruent	pCI	HAPPY	FEAR	HAPPY	0.369	1	F39HS_9426	NIMH-ChEFS
467.657	1	4	Incongruent	pII	FEAR	HAPPY	HAPPY	0.345	0	F3FS_3596	NIMH-ChEFS
472.71	1	3	Congruent	n/a	FEAR	FEAR	FEAR	0.284	1	M8FS_5869	NIMH-ChEFS
476.778	1	2	Congruent	n/a	HAPPY	HAPPY	FEAR	0.55	0	M4HS_4862	NIMH-ChEFS
479.84	1	3.5	Incongruent	pCI	HAPPY	FEAR	HAPPY	0.426	1	F2HA_3451	NIMH-ChEFS
484.398	1	2.5	Incongruent	pII	HAPPY	FEAR	FEAR	0.691	0	M10HA_6772	NIMH-ChEFS
487.966	1	4	Congruent	n/a	FEAR	FEAR	FEAR	0.831	1	F18FS_6229	NIMH-ChEFS
493.029	1	3.5	Congruent	n/a	HAPPY	HAPPY	FEAR	0.51	0	F31HS_8581	NIMH-ChEFS
497.59	1	2	Incongruent	pCI	FEAR	HAPPY	FEAR	0.954	1	M12FA_7082	NIMH-ChEFS
500.649	1	3	Incongruent	pII	HAPPY	FEAR	HAPPY	1.271	1	F12HA_5004	NIMH-ChEFS
504.707	1	2.5	Congruent	n/a	FEAR	FEAR	FEAR	0.27	1	F6FA_3922	NIMH-ChEFS
508.273	1	2.5	Congruent	n/a	HAPPY	HAPPY	HAPPY	0.561	1	M5HS_5134	NIMH-ChEFS
511.827	1	2	Incongruent	pCI	HAPPY	FEAR	FEAR	0.553	0	M14HS_7912	NIMH-ChEFS
514.911	1	3	Incongruent	pII	FEAR	HAPPY	HAPPY	0.473	0	F32FS_8041	NIMH-ChEFS
518.975	1	3.5	Congruent	n/a	FEAR	FEAR	HAPPY	0.228	0	M19FA_9129	NIMH-ChEFS
523.542	1	4	Congruent	n/a	HAPPY	HAPPY	HAPPY	0.424	1	F34HS_8209	NIMH-ChEFS
528.602	1	4	Incongruent	pCI	HAPPY	FEAR	FEAR	0.359	0	M18HA_8854	NIMH-ChEFS
533.688	1	2.5	Incongruent	pII	FEAR	HAPPY	HAPPY	0.328	0	F16FA_5992	NIMH-ChEFS
537.253	1	2	Congruent	n/a	FEAR	FEAR	FEAR	0.334	1	F37FS_9007	NIMH-ChEFS
540.309	1	3	Congruent	n/a	HAPPY	HAPPY	HAPPY	0.625	1	M3HA_4707	NIMH-ChEFS
544.393	1	3.5	Incongruent	pCI	FEAR	HAPPY	FEAR	0.84	1	M15FS_8364	NIMH-ChEFS
548.957	1	4	Incongruent	pII	FEAR	HAPPY	FEAR	0.389	1	F13FA_5314	NIMH-ChEFS
554.019	1	3	Congruent	n/a	HAPPY	HAPPY	HAPPY	1.004	1	F14HA_5595	NIMH-ChEFS
558.079	1	2.5	Congruent	n/a	FEAR	FEAR	FEAR	0.345	1	M5FA_5198	NIMH-ChEFS
561.643	1	2	Incongruent	pCI	FEAR	HAPPY	HAPPY	0.099	0	F2FA_3491	NIMH-ChEFS
564.702	1	3.5	Incongruent	pII	HAPPY	FEAR	HAPPY	0.014	1	F23HS_7148	NIMH-ChEFS
569.267	1	2.5	Congruent	n/a	FEAR	FEAR	FEAR	0.252	1	M18FS_8888	NIMH-ChEFS
572.839	1	3.5	Congruent	n/a	HAPPY	HAPPY	FEAR	0.018	0	F30HA_8500	NIMH-ChEFS
577.402	1	4	Incongruent	pCI	HAPPY	FEAR	HAPPY	0.093	1	M7HS_5497	NIMH-ChEFS
582.472	1	3	Incongruent	pII	FEAR	HAPPY	FEAR	0.226	1	F14FS_5632	NIMH-ChEFS
586.543	1	2	Congruent	n/a	HAPPY	HAPPY	HAPPY	0.336	1	M2HA_4506	NIMH-ChEFS
589.603	1	4	Congruent	n/a	FEAR	FEAR	FEAR	0.432	1	F21FA_6608	NIMH-ChEFS
594.686	1	3	Incongruent	pCI	HAPPY	FEAR	HAPPY	0.536	1	F6HS_3875	NIMH-ChEFS
598.745	1	3.5	Incongruent	pII	HAPPY	FEAR	FEAR	0.612	0	M19HS_9059	NIMH-ChEFS
603.306	1	2.5	Congruent	n/a	FEAR	FEAR	FEAR	0.612	1	F4FS_3704	NIMH-ChEFS
606.887	1	2	Congruent	n/a	HAPPY	HAPPY	HAPPY	0.851	1	F32HA_7998	NIMH-ChEFS
609.946	1	2.5	Incongruent	pCI	HAPPY	FEAR	FEAR	0.421	0	M6HA_5360	NIMH-ChEFS
613.52	1	2	Incongruent	pII	FEAR	HAPPY	FEAR	0.658	1	M16FA_8681	NIMH-ChEFS
616.576	1	4	Congruent	n/a	HAPPY	HAPPY	FEAR	0.989	0	F19HS_6297	NIMH-ChEFS
621.654	1	3	Congruent	n/a	FEAR	FEAR	no_resp	-0.099	0	F35FA_8465	NIMH-ChEFS
625.704	1	3.5	Incongruent	pCI	FEAR	HAPPY	FEAR	0.283	1	M4FS_4935	NIMH-ChEFS
630.269	1	2	Incongruent	pII	HAPPY	FEAR	HAPPY	0.363	1	F37HS_8954	NIMH-ChEFS
633.348	1	2.5	Congruent	n/a	FEAR	FEAR	FEAR	0.107	1	F30FS_8546	NIMH-ChEFS
636.907	1	3.5	Congruent	n/a	HAPPY	HAPPY	HAPPY	0.073	1	M9HS_6054	NIMH-ChEFS
641.467	1	3	Incongruent	pCI	FEAR	HAPPY	HAPPY	0.504	0	F31FA_7873	NIMH-ChEFS
645.525	1	4	Incongruent	pII	HAPPY	FEAR	FEAR	0.07	0	F4HA_3668	NIMH-ChEFS
650.582	1	2	Congruent	n/a	HAPPY	HAPPY	HAPPY	0.06	1	M15HA_8321	NIMH-ChEFS
653.636	1	3.5	Incongruent	pCI	HAPPY	FEAR	HAPPY	0.082	1	F3HS_3540	NIMH-ChEFS
658.194	1	4	Incongruent	pII	FEAR	HAPPY	HAPPY	0.199	0	M20FS_9236	NIMH-ChEFS
