onset	duration	interstimulus_interval	trial_type	trial_type_2	target_condition	distractor	response	response_time	correct	identifier	database
0.057	1	3.5	Congruent	n/a	FEAR	FEAR	FEAR	1.351	1	M9FS_6104	NIMH-ChEFS
4.617	1	4	Congruent	n/a	HAPPY	HAPPY	HAPPY	0.65	1	F13HA_5265	NIMH-ChEFS
9.682	1	3	Incongruent	pCI	HAPPY	FEAR	HAPPY	0.917	1	M4HA_4877	NIMH-ChEFS
13.745	1	2.5	Incongruent	pII	FEAR	HAPPY	FEAR	0.455	1	F7FS_4016	NIMH-ChEFS
17.298	1	2	Congruent	n/a	HAPPY	HAPPY	FEAR	0.88	0	F30HS_8495	NIMH-ChEFS
20.35	1	4	Congruent	n/a	FEAR	FEAR	FEAR	0.89	1	M4FA_4941	NIMH-ChEFS
25.397	1	2	Incongruent	pCI	FEAR	HAPPY	FEAR	1.382	1	F32FA_8053	NIMH-ChEFS
28.473	1	2.5	Incongruent	pII	HAPPY	FEAR	HAPPY	0.997	1	M10HS_6767	NIMH-ChEFS
32.03	1	3	Congruent	n/a	HAPPY	HAPPY	HAPPY	1.214	1	F23HA_7156	NIMH-ChEFS
36.081	1	3.5	Congruent	n/a	FEAR	FEAR	FEAR	0.636	1	F13FS_5292	NIMH-ChEFS
40.632	1	3.5	Incongruent	pCI	HAPPY	FEAR	HAPPY	0.897	1	F4HS_3664	NIMH-ChEFS
45.181	1	2.5	Incongruent	pII	HAPPY	FEAR	HAPPY	0.796	1	M20HA_9192	NIMH-ChEFS
48.734	1	2	Congruent	n/a	FEAR	FEAR	FEAR	0.788	1	F18FA_6243	NIMH-ChEFS
51.781	1	4	Congruent	n/a	HAPPY	HAPPY	HAPPY	0.642	1	M18HS_8848	NIMH-ChEFS
56.835	1	3	Incongruent	pCI	FEAR	HAPPY	FEAR	0.748	1	M14FS_7958	NIMH-ChEFS
60.884	1	2	Incongruent	pII	HAPPY	FEAR	HAPPY	0.677	1	F39HA_9433	NIMH-ChEFS
63.934	1	4	Congruent	n/a	FEAR	FEAR	FEAR	0.621	1	M10_FA_6823	NIMH-ChEFS
68.987	1	3.5	Congruent	n/a	HAPPY	HAPPY	HAPPY	0.689	1	F12HS_5000	NIMH-ChEFS
73.54	1	2.5	Incongruent	pCI	FEAR	HAPPY	FEAR	0.873	1	M17FA_8799	NIMH-ChEFS
77.098	1	3	Incongruent	pII	FEAR	HAPPY	FEAR	0.874	1	F2FS_3470	NIMH-ChEFS
81.146	1	3.5	Congruent	n/a	HAPPY	HAPPY	HAPPY	0.613	1	M14HA_7913	NIMH-ChEFS
85.697	1	4	Congruent	n/a	HAPPY	HAPPY	HAPPY	0.651	1	F7HA_3985	NIMH-ChEFS
90.749	1	2	Incongruent	pCI	FEAR	HAPPY	FEAR	0.861	1	M2FS_4636	NIMH-ChEFS
93.8	1	2.5	Incongruent	pII	HAPPY	FEAR	HAPPY	0.838	1	F18HS_6186	NIMH-ChEFS
97.348	1	3	Congruent	n/a	FEAR	FEAR	FEAR	0.773	1	F39FA_9489	NIMH-ChEFS
101.402	1	4	Congruent	n/a	HAPPY	HAPPY	HAPPY	0.615	1	M2HS_4493	NIMH-ChEFS
106.452	1	2	Incongruent	pCI	HAPPY	FEAR	HAPPY	0.644	1	F1HA_3424	NIMH-ChEFS
109.502	1	3.5	Incongruent	pII	FEAR	HAPPY	FEAR	0.724	1	M6FA__5449	NIMH-ChEFS
114.051	1	2.5	Congruent	n/a	FEAR	FEAR	FEAR	0.768	1	M19FS_9117	NIMH-ChEFS
117.603	1	3	Congruent	n/a	HAPPY	HAPPY	HAPPY	0.615	1	F35HS_8418	NIMH-ChEFS
121.655	1	4	Incongruent	pCI	FEAR	HAPPY	FEAR	0.842	1	F16FS_5978	NIMH-ChEFS
126.708	1	3	Incongruent	pII	FEAR	HAPPY	FEAR	0.829	1	M1FA_4336	NIMH-ChEFS
130.759	1	2.5	Congruent	n/a	HAPPY	HAPPY	HAPPY	0.661	1	M9HA_6057	NIMH-ChEFS
134.31	1	3.5	Congruent	n/a	FEAR	FEAR	FEAR	0.551	1	F4FA_3712	NIMH-ChEFS
138.859	1	2	Incongruent	pCI	HAPPY	FEAR	HAPPY	0.628	1	M15HS_8316	NIMH-ChEFS
141.91	1	4	Incongruent	pII	FEAR	HAPPY	FEAR	0.674	1	F21FS_6587	NIMH-ChEFS
146.963	1	2.5	Congruent	n/a	HAPPY	HAPPY	HAPPY	0.677	1	F19HA_6311	NIMH-ChEFS
150.512	1	3.5	Congruent	n/a	FEAR	FEAR	HAPPY	0.693	0	M10_4FS_6817	NIMH-ChEFS
155.062	1	2	Incongruent	pCI	HAPPY	FEAR	FEAR	2.786	0	F2HS_3448	NIMH-ChEFS
158.134	1	3	Incongruent	pII	HAPPY	FEAR	HAPPY	1.496	1	F10HA_4379	NIMH-ChEFS
162.184	1	2.5	Congruent	n/a	FEAR	FEAR	FEAR	0.728	1	M14FA_7960	NIMH-ChEFS
165.733	1	2	Congruent	n/a	FEAR	FEAR	FEAR	0.829	1	F30FA_8552	NIMH-ChEFS
168.788	1	4	Incongruent	pCI	HAPPY	FEAR	HAPPY	1.069	1	M8HA_5828	NIMH-ChEFS
173.843	1	3	Incongruent	pII	FEAR	HAPPY	FEAR	1.229	1	F35FS_8451	NIMH-ChEFS
177.899	1	3.5	Congruent	n/a	HAPPY	HAPPY	HAPPY	0.823	1	M1HS_4301	NIMH-ChEFS
182.452	1	2	Congruent	n/a	FEAR	FEAR	FEAR	0.736	1	F37FA_9020	NIMH-ChEFS
185.499	1	3	Incongruent	pCI	FEAR	HAPPY	FEAR	0.682	1	M11FS_6953	NIMH-ChEFS
189.551	1	3.5	Incongruent	pII	HAPPY	FEAR	HAPPY	0.931	1	F34HA_8219	NIMH-ChEFS
194.105	1	2.5	Congruent	n/a	FEAR	FEAR	FEAR	0.631	1	F10FS_4426	NIMH-ChEFS
197.656	1	4	Congruent	n/a	HAPPY	HAPPY	HAPPY	0.647	1	M16HS_8633	NIMH-ChEFS
202.709	1	3	Incongruent	pCI	HAPPY	FEAR	HAPPY	0.777	1	M5HA_5140	NIMH-ChEFS
206.765	1	4	Incongruent	pII	FEAR	HAPPY	FEAR	0.882	1	F12FA_5062	NIMH-ChEFS
211.822	1	3.5	Congruent	n/a	HAPPY	HAPPY	HAPPY	0.604	1	F16HS_5924	NIMH-ChEFS
216.372	1	2.5	Congruent	n/a	FEAR	FEAR	FEAR	0.549	1	M2FA_4644	NIMH-ChEFS
219.922	1	2	Incongruent	pCI	FEAR	HAPPY	FEAR	0.926	1	M16FS_8676	NIMH-ChEFS
222.973	1	2	Incongruent	pII	HAPPY	FEAR	HAPPY	0.782	1	F6HA_3882	NIMH-ChEFS
226.022	1	4	Congruent	n/a	FEAR	FEAR	FEAR	0.656	1	F19FS_6344	NIMH-ChEFS
231.068	1	3.5	Congruent	n/a	FEAR	FEAR	FEAR	1.038	1	M8FA_5885	NIMH-ChEFS
235.621	1	3	Incongruent	pCI	HAPPY	FEAR	HAPPY	1.198	1	F32HS_7996	NIMH-ChEFS
239.67	1	2.5	Incongruent	pII	HAPPY	FEAR	HAPPY	0.997	1	M19HA_9066	NIMH-ChEFS
243.219	1	4	Congruent	n/a	FEAR	FEAR	FEAR	0.682	1	M3FS_4775	NIMH-ChEFS
248.274	1	3	Congruent	n/a	HAPPY	HAPPY	HAPPY	0.837	1	F3HA_3545	NIMH-ChEFS
252.324	1	3.5	Incongruent	pCI	FEAR	HAPPY	FEAR	0.682	1	M9FA_6121	NIMH-ChEFS
256.883	1	2	Incongruent	pII	FEAR	HAPPY	FEAR	0.7	1	F14FA_5638	NIMH-ChEFS
259.948	1	2.5	Congruent	n/a	HAPPY	HAPPY	HAPPY	0.669	1	M6HS_5354	NIMH-ChEFS
263.5	1	2.5	Congruent	n/a	HAPPY	HAPPY	HAPPY	0.801	1	F21HS_6544	NIMH-ChEFS
267.051	1	3.5	Incongruent	pCI	FEAR	HAPPY	FEAR	0.81	1	M17FS_8783	NIMH-ChEFS
271.602	1	3	Incongruent	pII	HAPPY	FEAR	HAPPY	0.72	1	F37HA_8965	NIMH-ChEFS
275.653	1	4	Congruent	n/a	HAPPY	HAPPY	HAPPY	0.746	1	M12HA_7030	NIMH-ChEFS
280.703	1	2	Congruent	n/a	FEAR	FEAR	FEAR	0.658	1	F31FS_7861	NIMH-ChEFS
283.759	1	3	Incongruent	pCI	FEAR	HAPPY	FEAR	0.889	1	F3FA_3605	NIMH-ChEFS
287.81	1	2	Incongruent	pII	HAPPY	FEAR	HAPPY	1.052	1	M3HS_4695	NIMH-ChEFS
290.859	1	3.5	Congruent	n/a	FEAR	FEAR	FEAR	0.737	1	M11FA_6969	NIMH-ChEFS
295.404	1	4	Congruent	n/a	HAPPY	HAPPY	HAPPY	0.711	1	F14HS_5590	NIMH-ChEFS
300.453	1	2.5	Incongruent	pCI	FEAR	HAPPY	FEAR	0.801	1	M12FS_7070	NIMH-ChEFS
304.009	1	3.5	Incongruent	pII	FEAR	HAPPY	FEAR	0.942	1	F6FS_3906	NIMH-ChEFS
308.565	1	4	Congruent	n/a	HAPPY	HAPPY	HAPPY	0.697	1	M7HA_5500	NIMH-ChEFS
313.616	1	2.5	Congruent	n/a	FEAR	FEAR	FEAR	0.698	1	F23FA_7228	NIMH-ChEFS
317.166	1	2	Incongruent	pCI	HAPPY	FEAR	HAPPY	0.683	1	F31HA_8583	NIMH-ChEFS
320.217	1	3	Incongruent	pII	HAPPY	FEAR	HAPPY	0.842	1	M11HS_6885	NIMH-ChEFS
324.267	1	2.5	Congruent	n/a	FEAR	FEAR	FEAR	0.605	1	M3FA_4789	NIMH-ChEFS
327.834	1	4	Congruent	n/a	FEAR	FEAR	FEAR	0.695	1	F34FS_8257	NIMH-ChEFS
332.887	1	3	Incongruent	pCI	HAPPY	FEAR	HAPPY	0.573	1	M17HS_8732	NIMH-ChEFS
336.938	1	2	Incongruent	pII	FEAR	HAPPY	FEAR	0.495	1	F7FA_4040	NIMH-ChEFS
339.993	1	3.5	Congruent	n/a	HAPPY	HAPPY	HAPPY	0.826	1	F10HS_4372	NIMH-ChEFS
344.549	1	2.5	Congruent	n/a	FEAR	FEAR	FEAR	0.776	1	M1FS_4325	NIMH-ChEFS
348.102	1	2	Incongruent	pCI	FEAR	HAPPY	FEAR	0.756	1	M6_1FA_5445	NIMH-ChEFS
351.153	1	3	Incongruent	pII	HAPPY	FEAR	HAPPY	0.792	1	F35HA_8422	NIMH-ChEFS
355.204	1	3.5	Congruent	n/a	HAPPY	HAPPY	HAPPY	0.628	1	M16HA_8638	NIMH-ChEFS
359.756	1	4	Congruent	n/a	FEAR	FEAR	FEAR	0.68	1	F12FS_5036	NIMH-ChEFS
364.812	1	2	Incongruent	pCI	HAPPY	FEAR	HAPPY	1.176	1	F1HS_3423	NIMH-ChEFS
367.865	1	4	Incongruent	pII	FEAR	HAPPY	FEAR	0.72	1	M7FA_5539	NIMH-ChEFS
372.915	1	3	Congruent	n/a	FEAR	FEAR	FEAR	0.79	1	F34FA_8267	NIMH-ChEFS
376.965	1	3.5	Congruent	n/a	HAPPY	HAPPY	HAPPY	0.672	1	M8HS_5817	NIMH-ChEFS
381.518	1	2.5	Incongruent	pCI	FEAR	HAPPY	FEAR	0.687	1	F23FS_7205	NIMH-ChEFS
385.071	1	3.5	Incongruent	pII	HAPPY	FEAR	HAPPY	0.861	1	M1HA_4302	NIMH-ChEFS
389.621	1	2	Congruent	n/a	FEAR	FEAR	FEAR	0.795	1	M5FS_5188	NIMH-ChEFS
392.67	1	4	Congruent	n/a	HAPPY	HAPPY	HAPPY	0.605	1	F18HA_6193	NIMH-ChEFS
397.72	1	3	Incongruent	pCI	FEAR	HAPPY	FEAR	0.704	1	M20FA_9277	NIMH-ChEFS
401.776	1	2.5	Incongruent	pII	FEAR	HAPPY	FEAR	1.037	1	F10FA_4434	NIMH-ChEFS
405.325	1	2.5	Congruent	n/a	HAPPY	HAPPY	HAPPY	0.749	1	F7HS_3986	NIMH-ChEFS
408.881	1	2	Congruent	n/a	HAPPY	HAPPY	HAPPY	0.66	1	M12HS_7022	NIMH-ChEFS
411.942	1	3	Incongruent	pCI	FEAR	HAPPY	FEAR	0.743	1	M7FS_5530	NIMH-ChEFS
415.99	1	3.5	Incongruent	pII	HAPPY	FEAR	HAPPY	0.807	1	F21HA_6550	NIMH-ChEFS
420.54	1	4	Congruent	n/a	HAPPY	HAPPY	HAPPY	0.776	1	M17HA_8742	NIMH-ChEFS
425.591	1	2	Congruent	n/a	FEAR	FEAR	FEAR	0.614	1	F39FS_9475	NIMH-ChEFS
428.639	1	3.5	Incongruent	pCI	HAPPY	FEAR	HAPPY	1.006	1	M11HA_6890	NIMH-ChEFS
433.195	1	4	Incongruent	pII	FEAR	HAPPY	FEAR	0.793	1	F19FA_6353	NIMH-ChEFS
438.246	1	3	Congruent	n/a	FEAR	FEAR	FEAR	0.844	1	M15FA_8374	NIMH-ChEFS
442.299	1	2.5	Congruent	n/a	HAPPY	HAPPY	HAPPY	0.611	1	F13HS_5255	NIMH-ChEFS
445.85	1	2	Incongruent	pCI	HAPPY	FEAR	HAPPY	0.811	1	M20HS_9191	NIMH-ChEFS
448.903	1	3.5	Incongruent	pII	FEAR	HAPPY	FEAR	0.78	1	M6FS_5422	NIMH-ChEFS
453.454	1	3	Congruent	n/a	HAPPY	HAPPY	HAPPY	0.747	1	F16HA_5934	NIMH-ChEFS
457.506	1	2.5	Congruent	n/a	FEAR	FEAR	FEAR	0.817	1	M18FA_8913	NIMH-ChEFS
461.056	1	4	Incongruent	pCI	HAPPY	FEAR	HAPPY	0.897	1	F39HS_9426	NIMH-ChEFS
466.114	1	2.5	Incongruent	pII	FEAR	HAPPY	FEAR	0.677	1	F3FS_3596	NIMH-ChEFS
469.664	1	3	Congruent	n/a	FEAR	FEAR	FEAR	0.811	1	M8FS_5869	NIMH-ChEFS
473.721	1	2	Congruent	n/a	HAPPY	HAPPY	HAPPY	0.466	1	M4HS_4862	NIMH-ChEFS
476.801	1	4	Incongruent	pCI	HAPPY	FEAR	HAPPY	0.72	1	F2HA_3451	NIMH-ChEFS
481.856	1	3.5	Incongruent	pII	HAPPY	FEAR	FEAR	0.873	0	M10HA_6772	NIMH-ChEFS
486.406	1	3.5	Congruent	n/a	FEAR	FEAR	FEAR	0.918	1	F18FS_6229	NIMH-ChEFS
490.959	1	2.5	Congruent	n/a	HAPPY	HAPPY	HAPPY	0.652	1	F31HS_8581	NIMH-ChEFS
494.512	1	3	Incongruent	pCI	FEAR	HAPPY	FEAR	0.711	1	M12FA_7082	NIMH-ChEFS
498.589	1	2	Incongruent	pII	HAPPY	FEAR	HAPPY	1.022	1	F12HA_5004	NIMH-ChEFS
501.639	1	4	Congruent	n/a	FEAR	FEAR	FEAR	0.844	1	F6FA_3922	NIMH-ChEFS
506.692	1	3	Congruent	n/a	HAPPY	HAPPY	HAPPY	0.707	1	M5HS_5134	NIMH-ChEFS
510.742	1	3.5	Incongruent	pCI	HAPPY	FEAR	HAPPY	0.874	1	M14HS_7912	NIMH-ChEFS
515.293	1	4	Incongruent	pII	FEAR	HAPPY	FEAR	0.785	1	F32FS_8041	NIMH-ChEFS
520.344	1	2.5	Congruent	n/a	FEAR	FEAR	FEAR	0.655	1	M19FA_9129	NIMH-ChEFS
523.896	1	2	Congruent	n/a	HAPPY	HAPPY	HAPPY	0.413	1	F34HS_8209	NIMH-ChEFS
526.95	1	2.5	Incongruent	pCI	HAPPY	FEAR	HAPPY	0.77	1	M18HA_8854	NIMH-ChEFS
530.505	1	3	Incongruent	pII	FEAR	HAPPY	FEAR	0.446	1	F16FA_5992	NIMH-ChEFS
534.554	1	3.5	Congruent	n/a	FEAR	FEAR	FEAR	0.693	1	F37FS_9007	NIMH-ChEFS
539.113	1	2	Congruent	n/a	HAPPY	HAPPY	HAPPY	0.635	1	M3HA_4707	NIMH-ChEFS
542.171	1	4	Incongruent	pCI	FEAR	HAPPY	FEAR	0.764	1	M15FS_8364	NIMH-ChEFS
547.224	1	4	Incongruent	pII	FEAR	HAPPY	FEAR	0.788	1	F13FA_5314	NIMH-ChEFS
552.278	1	3	Congruent	n/a	HAPPY	HAPPY	HAPPY	0.682	1	F14HA_5595	NIMH-ChEFS
556.333	1	2	Congruent	n/a	FEAR	FEAR	FEAR	0.695	1	M5FA_5198	NIMH-ChEFS
559.389	1	3.5	Incongruent	pCI	FEAR	HAPPY	FEAR	0.824	1	F2FA_3491	NIMH-ChEFS
563.937	1	2.5	Incongruent	pII	HAPPY	FEAR	HAPPY	0.853	1	F23HS_7148	NIMH-ChEFS
567.491	1	4	Congruent	n/a	FEAR	FEAR	FEAR	0.79	1	M18FS_8888	NIMH-ChEFS
572.546	1	3.5	Congruent	n/a	HAPPY	HAPPY	HAPPY	0.78	1	F30HA_8500	NIMH-ChEFS
577.096	1	2	Incongruent	pCI	HAPPY	FEAR	HAPPY	0.818	1	M7HS_5497	NIMH-ChEFS
580.148	1	3	Incongruent	pII	FEAR	HAPPY	FEAR	0.728	1	F14FS_5632	NIMH-ChEFS
584.198	1	2.5	Congruent	n/a	HAPPY	HAPPY	HAPPY	0.669	1	M2HA_4506	NIMH-ChEFS
587.747	1	2.5	Congruent	n/a	FEAR	FEAR	FEAR	0.756	1	F21FA_6608	NIMH-ChEFS
591.303	1	2	Incongruent	pCI	HAPPY	FEAR	FEAR	0.811	0	F6HS_3875	NIMH-ChEFS
594.354	1	3	Incongruent	pII	HAPPY	FEAR	HAPPY	1.563	1	M19HS_9059	NIMH-ChEFS
598.407	1	3.5	Congruent	n/a	FEAR	FEAR	FEAR	0.628	1	F4FS_3704	NIMH-ChEFS
602.962	1	4	Congruent	n/a	HAPPY	HAPPY	HAPPY	0.559	1	F32HA_7998	NIMH-ChEFS
608.012	1	4	Incongruent	pCI	HAPPY	FEAR	HAPPY	0.996	1	M6HA_5360	NIMH-ChEFS
613.061	1	2.5	Incongruent	pII	FEAR	HAPPY	FEAR	0.937	1	M16FA_8681	NIMH-ChEFS
616.617	1	2	Congruent	n/a	HAPPY	HAPPY	HAPPY	0.583	1	F19HS_6297	NIMH-ChEFS
619.671	1	3	Congruent	n/a	FEAR	FEAR	FEAR	0.691	1	F35FA_8465	NIMH-ChEFS
623.72	1	3.5	Incongruent	pCI	FEAR	HAPPY	FEAR	1.02	1	M4FS_4935	NIMH-ChEFS
628.271	1	4	Incongruent	pII	HAPPY	FEAR	HAPPY	0.502	1	F37HS_8954	NIMH-ChEFS
633.321	1	3	Congruent	n/a	FEAR	FEAR	FEAR	0.499	1	F30FS_8546	NIMH-ChEFS
637.377	1	2.5	Congruent	n/a	HAPPY	HAPPY	HAPPY	0.53	1	M9HS_6054	NIMH-ChEFS
640.927	1	2	Incongruent	pCI	FEAR	HAPPY	FEAR	0.709	1	F31FA_7873	NIMH-ChEFS
643.982	1	3.5	Incongruent	pII	HAPPY	FEAR	HAPPY	0.752	1	F4HA_3668	NIMH-ChEFS
648.529	1	2.5	Congruent	n/a	HAPPY	HAPPY	HAPPY	0.412	1	M15HA_8321	NIMH-ChEFS
652.082	1	3.5	Incongruent	pCI	HAPPY	FEAR	FEAR	0.43	0	F3HS_3540	NIMH-ChEFS
656.635	1	4	Incongruent	pII	FEAR	HAPPY	FEAR	0.804	1	M20FS_9236	NIMH-ChEFS
