onset	duration	interstimulus_interval	trial_type	trial_type_2	target_condition	distractor	response	response_time	correct	identifier	database
0.054	1	3	Congruent	n/a	FEAR	FEAR	FEAR	0.945	1	M9FS_6104	NIMH-ChEFS
4.132	1	2.5	Congruent	n/a	HAPPY	HAPPY	HAPPY	0.766	1	F13HA_5265	NIMH-ChEFS
7.709	1	3.5	Incongruent	pCI	HAPPY	FEAR	HAPPY	1.119	1	M4HA_4877	NIMH-ChEFS
12.293	1	2	Incongruent	pII	FEAR	HAPPY	FEAR	1.51	1	F7FS_4016	NIMH-ChEFS
15.345	1	4	Congruent	n/a	HAPPY	HAPPY	HAPPY	0.745	1	F30HS_8495	NIMH-ChEFS
20.389	1	3	Congruent	n/a	FEAR	FEAR	FEAR	1.875	1	M4FA_4941	NIMH-ChEFS
24.434	1	2	Incongruent	pCI	FEAR	HAPPY	FEAR	1.221	1	F32FA_8053	NIMH-ChEFS
27.477	1	4	Incongruent	pII	HAPPY	FEAR	HAPPY	1.031	1	M10HS_6767	NIMH-ChEFS
32.545	1	3.5	Congruent	n/a	HAPPY	HAPPY	HAPPY	0.929	1	F23HA_7156	NIMH-ChEFS
37.112	1	2.5	Congruent	n/a	FEAR	FEAR	FEAR	1.149	1	F13FS_5292	NIMH-ChEFS
40.68	1	3	Incongruent	pCI	HAPPY	FEAR	HAPPY	2.002	1	F4HS_3664	NIMH-ChEFS
44.721	1	2.5	Incongruent	pII	HAPPY	FEAR	HAPPY	1.068	1	M20HA_9192	NIMH-ChEFS
48.289	1	2	Congruent	n/a	FEAR	FEAR	FEAR	0.924	1	F18FA_6243	NIMH-ChEFS
51.343	1	3.5	Congruent	n/a	HAPPY	HAPPY	HAPPY	0.724	1	M18HS_8848	NIMH-ChEFS
55.91	1	4	Incongruent	pCI	FEAR	HAPPY	FEAR	1.282	1	M14FS_7958	NIMH-ChEFS
60.982	1	2	Incongruent	pII	HAPPY	FEAR	HAPPY	0.98	1	F39HA_9433	NIMH-ChEFS
64.05	1	4	Congruent	n/a	FEAR	FEAR	FEAR	1.251	1	M10_FA_6823	NIMH-ChEFS
69.12	1	3.5	Congruent	n/a	HAPPY	HAPPY	HAPPY	1.042	1	F12HS_5000	NIMH-ChEFS
73.689	1	2.5	Incongruent	pCI	FEAR	HAPPY	FEAR	1.176	1	M17FA_8799	NIMH-ChEFS
77.26	1	3	Incongruent	pII	FEAR	HAPPY	HAPPY	1.205	0	F2FS_3470	NIMH-ChEFS
81.326	1	2.5	Congruent	n/a	HAPPY	HAPPY	HAPPY	0.972	1	M14HA_7913	NIMH-ChEFS
84.894	1	3	Congruent	n/a	HAPPY	HAPPY	HAPPY	0.901	1	F7HA_3985	NIMH-ChEFS
88.963	1	4	Incongruent	pCI	FEAR	HAPPY	FEAR	0.907	1	M2FS_4636	NIMH-ChEFS
94.031	1	2	Incongruent	pII	HAPPY	FEAR	HAPPY	0.916	1	F18HS_6186	NIMH-ChEFS
97.097	1	3.5	Congruent	n/a	FEAR	FEAR	FEAR	1.274	1	F39FA_9489	NIMH-ChEFS
101.653	1	4	Congruent	n/a	HAPPY	HAPPY	HAPPY	0.811	1	M2HS_4493	NIMH-ChEFS
106.696	1	2.5	Incongruent	pCI	HAPPY	FEAR	HAPPY	2.52	1	F1HA_3424	NIMH-ChEFS
110.262	1	3.5	Incongruent	pII	FEAR	HAPPY	HAPPY	1.327	0	M6FA__5449	NIMH-ChEFS
114.829	1	2	Congruent	n/a	FEAR	FEAR	FEAR	1.116	1	M19FS_9117	NIMH-ChEFS
117.898	1	3	Congruent	n/a	HAPPY	HAPPY	HAPPY	0.792	1	F35HS_8418	NIMH-ChEFS
121.944	1	3	Incongruent	pCI	FEAR	HAPPY	FEAR	1.423	1	F16FS_5978	NIMH-ChEFS
126.011	1	3.5	Incongruent	pII	FEAR	HAPPY	FEAR	1.657	1	M1FA_4336	NIMH-ChEFS
130.557	1	2	Congruent	n/a	HAPPY	HAPPY	HAPPY	1.837	1	M9HA_6057	NIMH-ChEFS
133.602	1	2.5	Congruent	n/a	FEAR	FEAR	FEAR	3.108	1	F4FA_3712	NIMH-ChEFS
137.147	1	4	Incongruent	pCI	HAPPY	FEAR	HAPPY	1.569	1	M15HS_8316	NIMH-ChEFS
142.194	1	3.5	Incongruent	pII	FEAR	HAPPY	HAPPY	2.084	0	F21FS_6587	NIMH-ChEFS
146.759	1	4	Congruent	n/a	HAPPY	HAPPY	FEAR	1.253	0	F19HA_6311	NIMH-ChEFS
151.799	1	2	Congruent	n/a	FEAR	FEAR	FEAR	1.274	1	M10_4FS_6817	NIMH-ChEFS
154.867	1	3	Incongruent	pCI	HAPPY	FEAR	HAPPY	1.07	1	F2HS_3448	NIMH-ChEFS
158.931	1	2.5	Incongruent	pII	HAPPY	FEAR	HAPPY	1.246	1	F10HA_4379	NIMH-ChEFS
162.477	1	2.5	Congruent	n/a	FEAR	FEAR	FEAR	1.048	1	M14FA_7960	NIMH-ChEFS
166.045	1	4	Congruent	n/a	FEAR	FEAR	HAPPY	1.422	0	F30FA_8552	NIMH-ChEFS
171.112	1	2	Incongruent	pCI	HAPPY	FEAR	HAPPY	1.697	1	M8HA_5828	NIMH-ChEFS
174.158	1	3	Incongruent	pII	FEAR	HAPPY	FEAR	1.227	1	F35FS_8451	NIMH-ChEFS
178.228	1	3.5	Congruent	n/a	HAPPY	HAPPY	HAPPY	0.771	1	M1HS_4301	NIMH-ChEFS
182.796	1	3.5	Congruent	n/a	FEAR	FEAR	FEAR	1.357	1	F37FA_9020	NIMH-ChEFS
187.366	1	2.5	Incongruent	pCI	FEAR	HAPPY	FEAR	2.148	1	M11FS_6953	NIMH-ChEFS
190.935	1	4	Incongruent	pII	HAPPY	FEAR	HAPPY	1.447	1	F34HA_8219	NIMH-ChEFS
196.006	1	3	Congruent	n/a	FEAR	FEAR	FEAR	1.978	1	F10FS_4426	NIMH-ChEFS
200.076	1	2	Congruent	n/a	HAPPY	HAPPY	no_resp	-0.099	0	M16HS_8633	NIMH-ChEFS
203.119	1	2.5	Incongruent	pCI	HAPPY	FEAR	HAPPY	2.635	1	M5HA_5140	NIMH-ChEFS
206.666	1	3.5	Incongruent	pII	FEAR	HAPPY	FEAR	1.183	1	F12FA_5062	NIMH-ChEFS
211.233	1	3	Congruent	n/a	HAPPY	HAPPY	HAPPY	0.886	1	F16HS_5924	NIMH-ChEFS
215.303	1	4	Congruent	n/a	FEAR	FEAR	HAPPY	1.483	0	M2FA_4644	NIMH-ChEFS
220.373	1	2	Incongruent	pCI	FEAR	HAPPY	FEAR	1.073	1	M16FS_8676	NIMH-ChEFS
223.439	1	3.5	Incongruent	pII	HAPPY	FEAR	HAPPY	1.167	1	F6HA_3882	NIMH-ChEFS
228.006	1	2.5	Congruent	n/a	FEAR	FEAR	FEAR	1.429	1	F19FS_6344	NIMH-ChEFS
231.553	1	2	Congruent	n/a	FEAR	FEAR	FEAR	1.182	1	M8FA_5885	NIMH-ChEFS
234.598	1	3	Incongruent	pCI	HAPPY	FEAR	HAPPY	1.389	1	F32HS_7996	NIMH-ChEFS
238.645	1	4	Incongruent	pII	HAPPY	FEAR	no_resp	-0.099	0	M19HA_9066	NIMH-ChEFS
243.686	1	2.5	Congruent	n/a	FEAR	FEAR	FEAR	1.506	1	M3FS_4775	NIMH-ChEFS
247.26	1	4	Congruent	n/a	HAPPY	HAPPY	HAPPY	1.114	1	F3HA_3545	NIMH-ChEFS
252.329	1	3.5	Incongruent	pCI	FEAR	HAPPY	FEAR	1.129	1	M9FA_6121	NIMH-ChEFS
256.897	1	3	Incongruent	pII	FEAR	HAPPY	FEAR	1.5	1	F14FA_5638	NIMH-ChEFS
260.965	1	2	Congruent	n/a	HAPPY	HAPPY	HAPPY	2	1	M6HS_5354	NIMH-ChEFS
264.035	1	2.5	Congruent	n/a	HAPPY	HAPPY	HAPPY	1.21	1	F21HS_6544	NIMH-ChEFS
267.578	1	2	Incongruent	pCI	FEAR	HAPPY	FEAR	0.99	1	M17FS_8783	NIMH-ChEFS
270.625	1	4	Incongruent	pII	HAPPY	FEAR	HAPPY	0.801	1	F37HA_8965	NIMH-ChEFS
275.672	1	3.5	Congruent	n/a	HAPPY	HAPPY	HAPPY	0.66	1	M12HA_7030	NIMH-ChEFS
280.24	1	3	Congruent	n/a	FEAR	FEAR	FEAR	0.901	1	F31FS_7861	NIMH-ChEFS
284.308	1	2	Incongruent	pCI	FEAR	HAPPY	FEAR	1.666	1	F3FA_3605	NIMH-ChEFS
287.352	1	3	Incongruent	pII	HAPPY	FEAR	HAPPY	1.179	1	M3HS_4695	NIMH-ChEFS
291.42	1	4	Congruent	n/a	FEAR	FEAR	FEAR	2.673	1	M11FA_6969	NIMH-ChEFS
296.489	1	3.5	Congruent	n/a	HAPPY	HAPPY	HAPPY	0.806	1	F14HS_5590	NIMH-ChEFS
301.061	1	2.5	Incongruent	pCI	FEAR	HAPPY	FEAR	0.93	1	M12FS_7070	NIMH-ChEFS
304.606	1	3	Incongruent	pII	FEAR	HAPPY	FEAR	1.501	1	F6FS_3906	NIMH-ChEFS
308.651	1	4	Congruent	n/a	HAPPY	HAPPY	HAPPY	1.444	1	M7HA_5500	NIMH-ChEFS
313.697	1	2	Congruent	n/a	FEAR	FEAR	FEAR	0.941	1	F23FA_7228	NIMH-ChEFS
316.744	1	2.5	Incongruent	pCI	HAPPY	FEAR	HAPPY	1.32	1	F31HA_8583	NIMH-ChEFS
320.312	1	3.5	Incongruent	pII	HAPPY	FEAR	HAPPY	2.323	1	M11HS_6885	NIMH-ChEFS
324.878	1	2.5	Congruent	n/a	FEAR	FEAR	FEAR	0.893	1	M3FA_4789	NIMH-ChEFS
328.443	1	3.5	Congruent	n/a	FEAR	FEAR	FEAR	1.398	1	F34FS_8257	NIMH-ChEFS
333.012	1	2	Incongruent	pCI	HAPPY	FEAR	HAPPY	1.279	1	M17HS_8732	NIMH-ChEFS
336.083	1	4	Incongruent	pII	FEAR	HAPPY	FEAR	1.723	1	F7FA_4040	NIMH-ChEFS
341.152	1	3	Congruent	n/a	HAPPY	HAPPY	HAPPY	0.806	1	F10HS_4372	NIMH-ChEFS
345.218	1	2	Congruent	n/a	FEAR	FEAR	FEAR	0.886	1	M1FS_4325	NIMH-ChEFS
348.287	1	3	Incongruent	pCI	FEAR	HAPPY	HAPPY	1.096	0	M6_1FA_5445	NIMH-ChEFS
352.327	1	2.5	Incongruent	pII	HAPPY	FEAR	HAPPY	0.905	1	F35HA_8422	NIMH-ChEFS
355.875	1	4	Congruent	n/a	HAPPY	HAPPY	HAPPY	0.864	1	M16HA_8638	NIMH-ChEFS
360.919	1	3.5	Congruent	n/a	FEAR	FEAR	FEAR	0.497	1	F12FS_5036	NIMH-ChEFS
365.469	1	3.5	Incongruent	pCI	HAPPY	FEAR	HAPPY	0.974	1	F1HS_3423	NIMH-ChEFS
370.034	1	3	Incongruent	pII	FEAR	HAPPY	FEAR	1.184	1	M7FA_5539	NIMH-ChEFS
374.084	1	2.5	Congruent	n/a	FEAR	FEAR	FEAR	1.56	1	F34FA_8267	NIMH-ChEFS
377.632	1	4	Congruent	n/a	HAPPY	HAPPY	HAPPY	1.231	1	M8HS_5817	NIMH-ChEFS
382.674	1	2	Incongruent	pCI	FEAR	HAPPY	FEAR	2.092	1	F23FS_7205	NIMH-ChEFS
385.717	1	3.5	Incongruent	pII	HAPPY	FEAR	HAPPY	0.732	1	M1HA_4302	NIMH-ChEFS
390.265	1	2.5	Congruent	n/a	FEAR	FEAR	FEAR	1.253	1	M5FS_5188	NIMH-ChEFS
393.824	1	2	Congruent	n/a	HAPPY	HAPPY	HAPPY	0.865	1	F18HA_6193	NIMH-ChEFS
396.87	1	4	Incongruent	pCI	FEAR	HAPPY	FEAR	1.109	1	M20FA_9277	NIMH-ChEFS
401.937	1	3	Incongruent	pII	FEAR	HAPPY	FEAR	1.017	1	F10FA_4434	NIMH-ChEFS
406.008	1	3.5	Congruent	n/a	HAPPY	HAPPY	HAPPY	0.484	1	F7HS_3986	NIMH-ChEFS
410.577	1	3	Congruent	n/a	HAPPY	HAPPY	HAPPY	1.314	1	M12HS_7022	NIMH-ChEFS
414.63	1	2	Incongruent	pCI	FEAR	HAPPY	FEAR	1.931	1	M7FS_5530	NIMH-ChEFS
417.676	1	4	Incongruent	pII	HAPPY	FEAR	HAPPY	0.952	1	F21HA_6550	NIMH-ChEFS
422.72	1	2.5	Congruent	n/a	HAPPY	HAPPY	HAPPY	0.58	1	M17HA_8742	NIMH-ChEFS
426.287	1	2	Congruent	n/a	FEAR	FEAR	FEAR	1.1	1	F39FS_9475	NIMH-ChEFS
429.353	1	4	Incongruent	pCI	HAPPY	FEAR	FEAR	0.49	0	M11HA_6890	NIMH-ChEFS
434.42	1	3	Incongruent	pII	FEAR	HAPPY	FEAR	0.944	1	F19FA_6353	NIMH-ChEFS
438.49	1	2.5	Congruent	n/a	FEAR	FEAR	FEAR	2.121	1	M15FA_8374	NIMH-ChEFS
442.058	1	3.5	Congruent	n/a	HAPPY	HAPPY	HAPPY	1.078	1	F13HS_5255	NIMH-ChEFS
446.624	1	3.5	Incongruent	pCI	HAPPY	FEAR	FEAR	0.774	0	M20HS_9191	NIMH-ChEFS
451.194	1	3	Incongruent	pII	FEAR	HAPPY	FEAR	1.545	1	M6FS_5422	NIMH-ChEFS
455.239	1	2.5	Congruent	n/a	HAPPY	HAPPY	HAPPY	0.866	1	F16HA_5934	NIMH-ChEFS
458.784	1	2	Congruent	n/a	FEAR	FEAR	FEAR	1.65	1	M18FA_8913	NIMH-ChEFS
461.829	1	4	Incongruent	pCI	HAPPY	FEAR	HAPPY	0.733	1	F39HS_9426	NIMH-ChEFS
466.876	1	3	Incongruent	pII	FEAR	HAPPY	FEAR	1.332	1	F3FS_3596	NIMH-ChEFS
470.921	1	2.5	Congruent	n/a	FEAR	FEAR	FEAR	1.864	1	M8FS_5869	NIMH-ChEFS
474.467	1	4	Congruent	n/a	HAPPY	HAPPY	HAPPY	1.853	1	M4HS_4862	NIMH-ChEFS
479.51	1	2	Incongruent	pCI	HAPPY	FEAR	HAPPY	1.187	1	F2HA_3451	NIMH-ChEFS
482.572	1	3.5	Incongruent	pII	HAPPY	FEAR	HAPPY	2.893	1	M10HA_6772	NIMH-ChEFS
487.136	1	4	Congruent	n/a	FEAR	FEAR	FEAR	1.234	1	F18FS_6229	NIMH-ChEFS
492.179	1	3.5	Congruent	n/a	HAPPY	HAPPY	HAPPY	0.927	1	F31HS_8581	NIMH-ChEFS
496.748	1	3	Incongruent	pCI	FEAR	HAPPY	FEAR	1.43	1	M12FA_7082	NIMH-ChEFS
500.791	1	2.5	Incongruent	pII	HAPPY	FEAR	HAPPY	0.963	1	F12HA_5004	NIMH-ChEFS
504.36	1	2	Congruent	n/a	FEAR	FEAR	FEAR	1.293	1	F6FA_3922	NIMH-ChEFS
507.43	1	2	Congruent	n/a	HAPPY	HAPPY	HAPPY	0.749	1	M5HS_5134	NIMH-ChEFS
510.501	1	4	Incongruent	pCI	HAPPY	FEAR	HAPPY	1.29	1	M14HS_7912	NIMH-ChEFS
515.572	1	3	Incongruent	pII	FEAR	HAPPY	HAPPY	0.566	0	F32FS_8041	NIMH-ChEFS
519.638	1	2.5	Congruent	n/a	FEAR	FEAR	FEAR	1.983	1	M19FA_9129	NIMH-ChEFS
523.206	1	3.5	Congruent	n/a	HAPPY	HAPPY	HAPPY	1.058	1	F34HS_8209	NIMH-ChEFS
527.774	1	3.5	Incongruent	pCI	HAPPY	FEAR	FEAR	1.535	0	M18HA_8854	NIMH-ChEFS
532.341	1	4	Incongruent	pII	FEAR	HAPPY	FEAR	1.835	1	F16FA_5992	NIMH-ChEFS
537.409	1	2.5	Congruent	n/a	FEAR	FEAR	FEAR	1.017	1	F37FS_9007	NIMH-ChEFS
540.959	1	3	Congruent	n/a	HAPPY	HAPPY	HAPPY	1.006	1	M3HA_4707	NIMH-ChEFS
545.03	1	2	Incongruent	pCI	FEAR	HAPPY	FEAR	1.96	1	M15FS_8364	NIMH-ChEFS
548.078	1	3	Incongruent	pII	FEAR	HAPPY	FEAR	1.214	1	F13FA_5314	NIMH-ChEFS
552.149	1	4	Congruent	n/a	HAPPY	HAPPY	HAPPY	4.761	1	F14HA_5595	NIMH-ChEFS
557.215	1	3.5	Congruent	n/a	FEAR	FEAR	FEAR	1.148	1	M5FA_5198	NIMH-ChEFS
561.783	1	2.5	Incongruent	pCI	FEAR	HAPPY	FEAR	1.384	1	F2FA_3491	NIMH-ChEFS
565.352	1	2	Incongruent	pII	HAPPY	FEAR	FEAR	1.681	0	F23HS_7148	NIMH-ChEFS
568.397	1	4	Congruent	n/a	FEAR	FEAR	FEAR	2.197	1	M18FS_8888	NIMH-ChEFS
573.468	1	2	Congruent	n/a	HAPPY	HAPPY	HAPPY	0.898	1	F30HA_8500	NIMH-ChEFS
576.537	1	3	Incongruent	pCI	HAPPY	FEAR	HAPPY	2.533	1	M7HS_5497	NIMH-ChEFS
580.604	1	3.5	Incongruent	pII	FEAR	HAPPY	FEAR	3.896	1	F14FS_5632	NIMH-ChEFS
585.174	1	2.5	Congruent	n/a	HAPPY	HAPPY	HAPPY	0.857	1	M2HA_4506	NIMH-ChEFS
588.743	1	2	Congruent	n/a	FEAR	FEAR	FEAR	1.137	1	F21FA_6608	NIMH-ChEFS
591.812	1	3.5	Incongruent	pCI	HAPPY	FEAR	HAPPY	1.171	1	F6HS_3875	NIMH-ChEFS
596.379	1	2.5	Incongruent	pII	HAPPY	FEAR	HAPPY	1.625	1	M19HS_9059	NIMH-ChEFS
599.925	1	4	Congruent	n/a	FEAR	FEAR	FEAR	1.741	1	F4FS_3704	NIMH-ChEFS
604.973	1	3	Congruent	n/a	HAPPY	HAPPY	HAPPY	1.449	1	F32HA_7998	NIMH-ChEFS
609.041	1	3	Incongruent	pCI	HAPPY	FEAR	HAPPY	2.474	1	M6HA_5360	NIMH-ChEFS
613.085	1	4	Incongruent	pII	FEAR	HAPPY	FEAR	1.501	1	M16FA_8681	NIMH-ChEFS
618.132	1	2.5	Congruent	n/a	HAPPY	HAPPY	HAPPY	1.218	1	F19HS_6297	NIMH-ChEFS
621.695	1	2	Congruent	n/a	FEAR	FEAR	FEAR	1.393	1	F35FA_8465	NIMH-ChEFS
624.761	1	3.5	Incongruent	pCI	FEAR	HAPPY	FEAR	2.263	1	M4FS_4935	NIMH-ChEFS
629.306	1	3.5	Incongruent	pII	HAPPY	FEAR	HAPPY	1.368	1	F37HS_8954	NIMH-ChEFS
633.847	1	4	Congruent	n/a	FEAR	FEAR	FEAR	2.207	1	F30FS_8546	NIMH-ChEFS
638.892	1	2.5	Congruent	n/a	HAPPY	HAPPY	HAPPY	0.881	1	M9HS_6054	NIMH-ChEFS
642.461	1	3	Incongruent	pCI	FEAR	HAPPY	FEAR	2.219	1	F31FA_7873	NIMH-ChEFS
646.533	1	2	Incongruent	pII	HAPPY	FEAR	HAPPY	2.336	1	F4HA_3668	NIMH-ChEFS
649.6	1	3.5	Congruent	n/a	HAPPY	HAPPY	HAPPY	1.025	1	M15HA_8321	NIMH-ChEFS
654.17	1	3	Incongruent	pCI	HAPPY	FEAR	HAPPY	1.055	1	F3HS_3540	NIMH-ChEFS
658.213	1	4	Incongruent	pII	FEAR	HAPPY	FEAR	0.948	1	M20FS_9236	NIMH-ChEFS
