onset	duration	interstimulus_interval	trial_type	trial_type_2	target_condition	distractor	response	response_time	correct	identifier	database
0.058	1	3.5	Congruent	n/a	FEAR	FEAR	FEAR	1.315	1	M9FS_6104	NIMH-ChEFS
4.627	1	4	Congruent	n/a	HAPPY	HAPPY	HAPPY	0.653	1	F13HA_5265	NIMH-ChEFS
9.713	1	2	Incongruent	pCI	HAPPY	FEAR	HAPPY	0.9	1	M4HA_4877	NIMH-ChEFS
12.78	1	2.5	Incongruent	pII	FEAR	HAPPY	FEAR	1.11	1	F7FS_4016	NIMH-ChEFS
16.365	1	3	Congruent	n/a	HAPPY	HAPPY	HAPPY	0.875	1	F30HS_8495	NIMH-ChEFS
20.419	1	4	Congruent	n/a	FEAR	FEAR	FEAR	0.657	1	M4FA_4941	NIMH-ChEFS
25.498	1	2	Incongruent	pCI	FEAR	HAPPY	FEAR	1.203	1	F32FA_8053	NIMH-ChEFS
28.55	1	3.5	Incongruent	pII	HAPPY	FEAR	HAPPY	0.97	1	M10HS_6767	NIMH-ChEFS
33.106	1	2.5	Congruent	n/a	HAPPY	HAPPY	HAPPY	0.83	1	F23HA_7156	NIMH-ChEFS
36.659	1	3	Congruent	n/a	FEAR	FEAR	FEAR	0.842	1	F13FS_5292	NIMH-ChEFS
40.711	1	4	Incongruent	pCI	HAPPY	FEAR	HAPPY	0.681	1	F4HS_3664	NIMH-ChEFS
45.767	1	3	Incongruent	pII	HAPPY	FEAR	HAPPY	0.779	1	M20HA_9192	NIMH-ChEFS
49.841	1	2.5	Congruent	n/a	FEAR	FEAR	FEAR	0.603	1	F18FA_6243	NIMH-ChEFS
53.394	1	3.5	Congruent	n/a	HAPPY	HAPPY	HAPPY	0.645	1	M18HS_8848	NIMH-ChEFS
57.947	1	2	Incongruent	pCI	FEAR	HAPPY	FEAR	0.715	1	M14FS_7958	NIMH-ChEFS
61.005	1	4	Incongruent	pII	HAPPY	FEAR	HAPPY	0.642	1	F39HA_9433	NIMH-ChEFS
66.057	1	2.5	Congruent	n/a	FEAR	FEAR	FEAR	0.692	1	M10_FA_6823	NIMH-ChEFS
69.61	1	3.5	Congruent	n/a	HAPPY	HAPPY	HAPPY	0.582	1	F12HS_5000	NIMH-ChEFS
74.165	1	2	Incongruent	pCI	FEAR	HAPPY	FEAR	0.641	1	M17FA_8799	NIMH-ChEFS
77.218	1	3	Incongruent	pII	FEAR	HAPPY	FEAR	0.728	1	F2FS_3470	NIMH-ChEFS
81.276	1	2.5	Congruent	n/a	HAPPY	HAPPY	HAPPY	0.613	1	M14HA_7913	NIMH-ChEFS
84.831	1	2	Congruent	n/a	HAPPY	HAPPY	HAPPY	0.812	1	F7HA_3985	NIMH-ChEFS
87.909	1	4	Incongruent	pCI	FEAR	HAPPY	FEAR	0.586	1	M2FS_4636	NIMH-ChEFS
92.958	1	3	Incongruent	pII	HAPPY	FEAR	HAPPY	0.623	1	F18HS_6186	NIMH-ChEFS
97.003	1	3.5	Congruent	n/a	FEAR	FEAR	FEAR	0.881	1	F39FA_9489	NIMH-ChEFS
101.561	1	2	Congruent	n/a	HAPPY	HAPPY	HAPPY	0.722	1	M2HS_4493	NIMH-ChEFS
104.608	1	3	Incongruent	pCI	HAPPY	FEAR	FEAR	0.987	0	F1HA_3424	NIMH-ChEFS
108.66	1	3.5	Incongruent	pII	FEAR	HAPPY	FEAR	0.953	1	M6FA__5449	NIMH-ChEFS
113.213	1	2.5	Congruent	n/a	FEAR	FEAR	FEAR	0.788	1	M19FS_9117	NIMH-ChEFS
116.765	1	4	Congruent	n/a	HAPPY	HAPPY	HAPPY	0.629	1	F35HS_8418	NIMH-ChEFS
121.842	1	3	Incongruent	pCI	FEAR	HAPPY	FEAR	1.018	1	F16FS_5978	NIMH-ChEFS
125.92	1	4	Incongruent	pII	FEAR	HAPPY	FEAR	0.854	1	M1FA_4336	NIMH-ChEFS
130.998	1	3.5	Congruent	n/a	HAPPY	HAPPY	HAPPY	0.673	1	M9HA_6057	NIMH-ChEFS
135.576	1	2.5	Congruent	n/a	FEAR	FEAR	FEAR	0.809	1	F4FA_3712	NIMH-ChEFS
139.124	1	2	Incongruent	pCI	HAPPY	FEAR	HAPPY	0.874	1	M15HS_8316	NIMH-ChEFS
142.179	1	2	Incongruent	pII	FEAR	HAPPY	FEAR	0.891	1	F21FS_6587	NIMH-ChEFS
145.237	1	4	Congruent	n/a	HAPPY	HAPPY	HAPPY	0.613	1	F19HA_6311	NIMH-ChEFS
150.289	1	3.5	Congruent	n/a	FEAR	FEAR	FEAR	0.865	1	M10_4FS_6817	NIMH-ChEFS
154.867	1	3	Incongruent	pCI	HAPPY	FEAR	HAPPY	1.13	1	F2HS_3448	NIMH-ChEFS
158.917	1	2.5	Incongruent	pII	HAPPY	FEAR	HAPPY	0.884	1	F10HA_4379	NIMH-ChEFS
162.47	1	4	Congruent	n/a	FEAR	FEAR	FEAR	0.744	1	M14FA_7960	NIMH-ChEFS
167.528	1	3	Congruent	n/a	FEAR	FEAR	FEAR	0.97	1	F30FA_8552	NIMH-ChEFS
171.605	1	3.5	Incongruent	pCI	HAPPY	FEAR	HAPPY	0.725	1	M8HA_5828	NIMH-ChEFS
176.185	1	2	Incongruent	pII	FEAR	HAPPY	HAPPY	0.869	0	F35FS_8451	NIMH-ChEFS
179.263	1	2.5	Congruent	n/a	HAPPY	HAPPY	HAPPY	0.892	1	M1HS_4301	NIMH-ChEFS
182.813	1	2.5	Congruent	n/a	FEAR	FEAR	FEAR	0.755	1	F37FA_9020	NIMH-ChEFS
186.365	1	3.5	Incongruent	pCI	FEAR	HAPPY	FEAR	0.861	1	M11FS_6953	NIMH-ChEFS
190.938	1	3	Incongruent	pII	HAPPY	FEAR	HAPPY	0.86	1	F34HA_8219	NIMH-ChEFS
194.991	1	4	Congruent	n/a	FEAR	FEAR	FEAR	0.814	1	F10FS_4426	NIMH-ChEFS
200.045	1	2	Congruent	n/a	HAPPY	HAPPY	HAPPY	0.846	1	M16HS_8633	NIMH-ChEFS
203.097	1	3	Incongruent	pCI	HAPPY	FEAR	no_resp	-0.099	0	M5HA_5140	NIMH-ChEFS
207.145	1	2	Incongruent	pII	FEAR	HAPPY	HAPPY	0.925	0	F12FA_5062	NIMH-ChEFS
210.221	1	3.5	Congruent	n/a	HAPPY	HAPPY	HAPPY	1.159	1	F16HS_5924	NIMH-ChEFS
214.794	1	4	Congruent	n/a	FEAR	FEAR	FEAR	0.774	1	M2FA_4644	NIMH-ChEFS
219.848	1	2.5	Incongruent	pCI	FEAR	HAPPY	FEAR	0.91	1	M16FS_8676	NIMH-ChEFS
223.401	1	3.5	Incongruent	pII	HAPPY	FEAR	HAPPY	0.761	1	F6HA_3882	NIMH-ChEFS
227.952	1	4	Congruent	n/a	FEAR	FEAR	FEAR	0.957	1	F19FS_6344	NIMH-ChEFS
233.035	1	2.5	Congruent	n/a	FEAR	FEAR	FEAR	0.818	1	M8FA_5885	NIMH-ChEFS
236.589	1	2	Incongruent	pCI	HAPPY	FEAR	HAPPY	0.697	1	F32HS_7996	NIMH-ChEFS
239.645	1	3	Incongruent	pII	HAPPY	FEAR	FEAR	0.894	0	M19HA_9066	NIMH-ChEFS
243.696	1	2.5	Congruent	n/a	FEAR	FEAR	FEAR	0.875	1	M3FS_4775	NIMH-ChEFS
247.276	1	4	Congruent	n/a	HAPPY	HAPPY	HAPPY	0.765	1	F3HA_3545	NIMH-ChEFS
252.33	1	3	Incongruent	pCI	FEAR	HAPPY	FEAR	0.779	1	M9FA_6121	NIMH-ChEFS
256.383	1	2	Incongruent	pII	FEAR	HAPPY	no_resp	-0.099	0	F14FA_5638	NIMH-ChEFS
259.435	1	3.5	Congruent	n/a	HAPPY	HAPPY	FEAR	1.138	0	M6HS_5354	NIMH-ChEFS
263.987	1	2.5	Congruent	n/a	HAPPY	HAPPY	HAPPY	2.353	1	F21HS_6544	NIMH-ChEFS
267.543	1	2	Incongruent	pCI	FEAR	HAPPY	FEAR	0.812	1	M17FS_8783	NIMH-ChEFS
270.593	1	3	Incongruent	pII	HAPPY	FEAR	HAPPY	0.626	1	F37HA_8965	NIMH-ChEFS
274.641	1	3.5	Congruent	n/a	HAPPY	HAPPY	FEAR	0.744	0	M12HA_7030	NIMH-ChEFS
279.198	1	4	Congruent	n/a	FEAR	FEAR	FEAR	0.974	1	F31FS_7861	NIMH-ChEFS
284.277	1	2	Incongruent	pCI	FEAR	HAPPY	FEAR	1.055	1	F3FA_3605	NIMH-ChEFS
287.333	1	4	Incongruent	pII	HAPPY	FEAR	HAPPY	1.089	1	M3HS_4695	NIMH-ChEFS
292.383	1	3	Congruent	n/a	FEAR	FEAR	FEAR	0.717	1	M11FA_6969	NIMH-ChEFS
296.437	1	3.5	Congruent	n/a	HAPPY	HAPPY	FEAR	0.949	0	F14HS_5590	NIMH-ChEFS
300.991	1	2.5	Incongruent	pCI	FEAR	HAPPY	HAPPY	0.929	0	M12FS_7070	NIMH-ChEFS
304.545	1	3.5	Incongruent	pII	FEAR	HAPPY	FEAR	1.031	1	F6FS_3906	NIMH-ChEFS
309.097	1	2	Congruent	n/a	HAPPY	HAPPY	HAPPY	0.766	1	M7HA_5500	NIMH-ChEFS
312.176	1	4	Congruent	n/a	FEAR	FEAR	FEAR	0.797	1	F23FA_7228	NIMH-ChEFS
317.229	1	3	Incongruent	pCI	HAPPY	FEAR	HAPPY	0.899	1	F31HA_8583	NIMH-ChEFS
321.282	1	2.5	Incongruent	pII	HAPPY	FEAR	HAPPY	0.909	1	M11HS_6885	NIMH-ChEFS
324.831	1	2.5	Congruent	n/a	FEAR	FEAR	FEAR	0.523	1	M3FA_4789	NIMH-ChEFS
328.385	1	2	Congruent	n/a	FEAR	FEAR	FEAR	0.985	1	F34FS_8257	NIMH-ChEFS
331.44	1	3	Incongruent	pCI	HAPPY	FEAR	FEAR	0.785	0	M17HS_8732	NIMH-ChEFS
335.493	1	3.5	Incongruent	pII	FEAR	HAPPY	FEAR	1.088	1	F7FA_4040	NIMH-ChEFS
340.072	1	4	Congruent	n/a	HAPPY	HAPPY	HAPPY	0.855	1	F10HS_4372	NIMH-ChEFS
345.124	1	2	Congruent	n/a	FEAR	FEAR	FEAR	0.83	1	M1FS_4325	NIMH-ChEFS
348.176	1	3.5	Incongruent	pCI	FEAR	HAPPY	FEAR	0.983	1	M6_1FA_5445	NIMH-ChEFS
352.738	1	4	Incongruent	pII	HAPPY	FEAR	HAPPY	0.751	1	F35HA_8422	NIMH-ChEFS
357.792	1	3	Congruent	n/a	HAPPY	HAPPY	HAPPY	0.804	1	M16HA_8638	NIMH-ChEFS
361.84	1	2.5	Congruent	n/a	FEAR	FEAR	FEAR	0.672	1	F12FS_5036	NIMH-ChEFS
365.397	1	2	Incongruent	pCI	HAPPY	FEAR	HAPPY	0.932	1	F1HS_3423	NIMH-ChEFS
368.475	1	3.5	Incongruent	pII	FEAR	HAPPY	FEAR	0.897	1	M7FA_5539	NIMH-ChEFS
373.054	1	3	Congruent	n/a	FEAR	FEAR	FEAR	0.962	1	F34FA_8267	NIMH-ChEFS
377.114	1	2.5	Congruent	n/a	HAPPY	HAPPY	HAPPY	0.695	1	M8HS_5817	NIMH-ChEFS
380.667	1	4	Incongruent	pCI	FEAR	HAPPY	FEAR	0.741	1	F23FS_7205	NIMH-ChEFS
385.743	1	2.5	Incongruent	pII	HAPPY	FEAR	HAPPY	0.703	1	M1HA_4302	NIMH-ChEFS
389.292	1	3	Congruent	n/a	FEAR	FEAR	FEAR	0.829	1	M5FS_5188	NIMH-ChEFS
393.368	1	2	Congruent	n/a	HAPPY	HAPPY	HAPPY	0.636	1	F18HA_6193	NIMH-ChEFS
396.422	1	4	Incongruent	pCI	FEAR	HAPPY	HAPPY	0.963	0	M20FA_9277	NIMH-ChEFS
401.482	1	3.5	Incongruent	pII	FEAR	HAPPY	FEAR	1.13	1	F10FA_4434	NIMH-ChEFS
406.059	1	3.5	Congruent	n/a	HAPPY	HAPPY	HAPPY	0.93	1	F7HS_3986	NIMH-ChEFS
410.638	1	2.5	Congruent	n/a	HAPPY	HAPPY	HAPPY	1.308	1	M12HS_7022	NIMH-ChEFS
414.193	1	3	Incongruent	pCI	FEAR	HAPPY	FEAR	0.929	1	M7FS_5530	NIMH-ChEFS
418.245	1	2	Incongruent	pII	HAPPY	FEAR	HAPPY	0.601	1	F21HA_6550	NIMH-ChEFS
421.328	1	4	Congruent	n/a	HAPPY	HAPPY	HAPPY	0.936	1	M17HA_8742	NIMH-ChEFS
426.381	1	3	Congruent	n/a	FEAR	FEAR	FEAR	0.682	1	F39FS_9475	NIMH-ChEFS
430.437	1	3.5	Incongruent	pCI	HAPPY	FEAR	FEAR	0.76	0	M11HA_6890	NIMH-ChEFS
434.991	1	4	Incongruent	pII	FEAR	HAPPY	FEAR	1.094	1	F19FA_6353	NIMH-ChEFS
440.044	1	2.5	Congruent	n/a	FEAR	FEAR	FEAR	0.67	1	M15FA_8374	NIMH-ChEFS
443.622	1	2	Congruent	n/a	HAPPY	HAPPY	HAPPY	1.176	1	F13HS_5255	NIMH-ChEFS
446.674	1	2.5	Incongruent	pCI	HAPPY	FEAR	HAPPY	0.693	1	M20HS_9191	NIMH-ChEFS
450.232	1	3	Incongruent	pII	FEAR	HAPPY	FEAR	0.85	1	M6FS_5422	NIMH-ChEFS
454.283	1	3.5	Congruent	n/a	HAPPY	HAPPY	FEAR	0.913	0	F16HA_5934	NIMH-ChEFS
458.857	1	2	Congruent	n/a	FEAR	FEAR	FEAR	0.874	1	M18FA_8913	NIMH-ChEFS
461.913	1	4	Incongruent	pCI	HAPPY	FEAR	HAPPY	1.011	1	F39HS_9426	NIMH-ChEFS
466.967	1	4	Incongruent	pII	FEAR	HAPPY	FEAR	0.981	1	F3FS_3596	NIMH-ChEFS
472.011	1	3	Congruent	n/a	FEAR	FEAR	FEAR	0.905	1	M8FS_5869	NIMH-ChEFS
476.068	1	2	Congruent	n/a	HAPPY	HAPPY	HAPPY	0.937	1	M4HS_4862	NIMH-ChEFS
479.118	1	3.5	Incongruent	pCI	HAPPY	FEAR	HAPPY	0.885	1	F2HA_3451	NIMH-ChEFS
483.695	1	2.5	Incongruent	pII	HAPPY	FEAR	HAPPY	1.076	1	M10HA_6772	NIMH-ChEFS
487.247	1	4	Congruent	n/a	FEAR	FEAR	FEAR	0.946	1	F18FS_6229	NIMH-ChEFS
492.3	1	3.5	Congruent	n/a	HAPPY	HAPPY	HAPPY	0.798	1	F31HS_8581	NIMH-ChEFS
496.854	1	2	Incongruent	pCI	FEAR	HAPPY	FEAR	1.024	1	M12FA_7082	NIMH-ChEFS
499.901	1	3	Incongruent	pII	HAPPY	FEAR	HAPPY	0.937	1	F12HA_5004	NIMH-ChEFS
503.95	1	2.5	Congruent	n/a	FEAR	FEAR	FEAR	0.914	1	F6FA_3922	NIMH-ChEFS
507.53	1	2.5	Congruent	n/a	HAPPY	HAPPY	HAPPY	0.801	1	M5HS_5134	NIMH-ChEFS
511.106	1	2	Incongruent	pCI	HAPPY	FEAR	HAPPY	0.901	1	M14HS_7912	NIMH-ChEFS
514.16	1	3	Incongruent	pII	FEAR	HAPPY	FEAR	0.931	1	F32FS_8041	NIMH-ChEFS
518.212	1	3.5	Congruent	n/a	FEAR	FEAR	FEAR	1.146	1	M19FA_9129	NIMH-ChEFS
522.769	1	4	Congruent	n/a	HAPPY	HAPPY	HAPPY	0.668	1	F34HS_8209	NIMH-ChEFS
527.821	1	4	Incongruent	pCI	HAPPY	FEAR	HAPPY	0.911	1	M18HA_8854	NIMH-ChEFS
532.881	1	2.5	Incongruent	pII	FEAR	HAPPY	FEAR	0.914	1	F16FA_5992	NIMH-ChEFS
536.432	1	2	Congruent	n/a	FEAR	FEAR	FEAR	0.996	1	F37FS_9007	NIMH-ChEFS
539.51	1	3	Congruent	n/a	HAPPY	HAPPY	HAPPY	1.124	1	M3HA_4707	NIMH-ChEFS
543.562	1	3.5	Incongruent	pCI	FEAR	HAPPY	FEAR	0.56	1	M15FS_8364	NIMH-ChEFS
548.144	1	4	Incongruent	pII	FEAR	HAPPY	HAPPY	0.612	0	F13FA_5314	NIMH-ChEFS
553.204	1	3	Congruent	n/a	HAPPY	HAPPY	HAPPY	0.836	1	F14HA_5595	NIMH-ChEFS
557.255	1	2.5	Congruent	n/a	FEAR	FEAR	FEAR	0.576	1	M5FA_5198	NIMH-ChEFS
560.814	1	2	Incongruent	pCI	FEAR	HAPPY	FEAR	0.853	1	F2FA_3491	NIMH-ChEFS
563.894	1	3.5	Incongruent	pII	HAPPY	FEAR	no_resp	-0.099	0	F23HS_7148	NIMH-ChEFS
568.438	1	2.5	Congruent	n/a	FEAR	FEAR	FEAR	1.282	1	M18FS_8888	NIMH-ChEFS
571.99	1	3.5	Congruent	n/a	HAPPY	HAPPY	HAPPY	0.748	1	F30HA_8500	NIMH-ChEFS
576.569	1	4	Incongruent	pCI	HAPPY	FEAR	FEAR	1.093	0	M7HS_5497	NIMH-ChEFS
581.65	1	3	Incongruent	pII	FEAR	HAPPY	HAPPY	1.216	0	F14FS_5632	NIMH-ChEFS
585.704	1	2	Congruent	n/a	HAPPY	HAPPY	no_resp	-0.099	0	M2HA_4506	NIMH-ChEFS
588.75	1	4	Congruent	n/a	FEAR	FEAR	FEAR	0.905	1	F21FA_6608	NIMH-ChEFS
593.801	1	3	Incongruent	pCI	HAPPY	FEAR	FEAR	1.434	0	F6HS_3875	NIMH-ChEFS
597.853	1	3.5	Incongruent	pII	HAPPY	FEAR	no_resp	-0.099	0	M19HS_9059	NIMH-ChEFS
602.399	1	2.5	Congruent	n/a	FEAR	FEAR	no_resp	-0.099	0	F4FS_3704	NIMH-ChEFS
605.947	1	2	Congruent	n/a	HAPPY	HAPPY	HAPPY	0.735	1	F32HA_7998	NIMH-ChEFS
608.992	1	2.5	Incongruent	pCI	HAPPY	FEAR	FEAR	0.76	0	M6HA_5360	NIMH-ChEFS
612.545	1	2	Incongruent	pII	FEAR	HAPPY	FEAR	0.993	1	M16FA_8681	NIMH-ChEFS
615.601	1	4	Congruent	n/a	HAPPY	HAPPY	HAPPY	0.628	1	F19HS_6297	NIMH-ChEFS
620.656	1	3	Congruent	n/a	FEAR	FEAR	FEAR	0.955	1	F35FA_8465	NIMH-ChEFS
624.713	1	3.5	Incongruent	pCI	FEAR	HAPPY	HAPPY	0.696	0	M4FS_4935	NIMH-ChEFS
629.259	1	2	Incongruent	pII	HAPPY	FEAR	HAPPY	0.864	1	F37HS_8954	NIMH-ChEFS
632.334	1	2.5	Congruent	n/a	FEAR	FEAR	FEAR	0.771	1	F30FS_8546	NIMH-ChEFS
635.89	1	3.5	Congruent	n/a	HAPPY	HAPPY	HAPPY	0.698	1	M9HS_6054	NIMH-ChEFS
640.446	1	3	Incongruent	pCI	FEAR	HAPPY	FEAR	0.819	1	F31FA_7873	NIMH-ChEFS
644.495	1	4	Incongruent	pII	HAPPY	FEAR	HAPPY	0.811	1	F4HA_3668	NIMH-ChEFS
649.546	1	2	Congruent	n/a	HAPPY	HAPPY	HAPPY	0.878	1	M15HA_8321	NIMH-ChEFS
652.622	1	3.5	Incongruent	pCI	HAPPY	FEAR	HAPPY	1.021	1	F3HS_3540	NIMH-ChEFS
657.176	1	4	Incongruent	pII	FEAR	HAPPY	FEAR	0.672	1	M20FS_9236	NIMH-ChEFS
